aX,aY,aZ,gX,gY,gZ
0.378,0.652,-1.005,27.954,-58.472,62.256
0.306,0.583,-0.608,-29.114,-67.261,19.897
0.390,0.518,-0.542,-52.063,-47.546,10.559
0.384,0.468,-0.669,-28.259,-20.569,3.723
0.374,0.409,-0.831,-27.832,-5.737,-0.793
0.378,0.400,-0.908,-27.222,-4.272,-1.343
0.403,0.417,-0.916,-22.888,-8.850,0.549
0.391,0.420,-0.874,-23.193,-14.099,0.671
0.380,0.430,-0.805,-22.827,-16.968,0.671
0.406,0.440,-0.753,-19.653,-16.113,-0.366
0.422,0.435,-0.794,-22.339,-11.047,-2.319
0.403,0.412,-0.817,-30.029,-9.521,-6.531
0.425,0.370,-0.808,-33.325,-12.878,-10.742
0.420,0.314,-0.798,-21.973,-12.695,-11.414
0.401,0.309,-0.814,-32.776,-12.207,-7.507
0.409,0.391,-0.818,-13.855,-10.376,-2.075
0.400,0.445,-0.791,20.081,-8.667,-1.953
0.414,0.450,-0.726,43.396,-5.432,-7.080
0.406,0.410,-0.701,67.627,1.892,-13.062
0.393,0.373,-0.733,97.107,12.390,-17.029
0.409,0.426,-0.725,113.647,20.264,-15.991
0.411,0.410,-0.758,127.625,27.649,-16.541
0.389,0.343,-0.786,148.437,33.142,-17.944
0.396,0.390,-0.834,164.185,34.912,-10.010
0.408,0.463,-0.859,164.429,32.654,-1.892
0.387,0.494,-0.810,161.682,25.818,1.892
0.385,0.503,-0.726,165.161,19.653,2.869
0.376,0.535,-0.688,174.744,19.897,5.432
0.371,0.583,-0.677,187.378,22.461,9.033
0.368,0.638,-0.682,198.486,23.926,12.634
0.365,0.657,-0.674,215.881,25.146,13.855
0.359,0.692,-0.627,244.507,26.123,15.442
0.344,0.733,-0.587,256.714,27.283,17.212
0.338,0.776,-0.563,253.784,29.175,17.456
0.331,0.792,-0.541,235.474,30.212,15.259
0.326,0.819,-0.535,213.501,28.870,13.123
0.329,0.859,-0.511,177.551,24.292,11.414
0.330,0.871,-0.502,135.742,19.958,6.775
0.328,0.865,-0.524,99.304,17.151,1.648
0.330,0.829,-0.525,65.735,12.573,-2.319
0.328,0.808,-0.497,39.978,6.897,-3.845
0.339,0.821,-0.455,17.761,2.197,-3.601
0.337,0.841,-0.444,-5.066,0.549,-3.906
0.333,0.851,-0.451,-31.860,0.488,-5.798
0.337,0.829,-0.480,-54.504,1.282,-8.850
0.327,0.775,-0.492,-66.467,1.953,-11.414
0.330,0.750,-0.473,-67.505,1.709,-10.071
0.335,0.760,-0.471,-64.148,2.686,-6.775
0.339,0.763,-0.497,-67.810,5.493,-5.188
0.344,0.751,-0.547,-72.083,8.179,-5.188
0.351,0.743,-0.596,-76.172,9.033,-5.066
0.354,0.727,-0.635,-75.806,7.507,-4.944
0.352,0.717,-0.634,-68.481,3.662,-3.967
0.351,0.739,-0.594,-62.988,-0.916,-2.197
0.350,0.755,-0.559,-58.044,-3.113,-1.343
0.348,0.739,-0.562,-48.645,-2.136,-1.953
0.341,0.713,-0.581,-37.781,-0.305,-2.014
0.344,0.704,-0.584,-29.907,0.244,-1.404
0.344,0.712,-0.589,-27.222,0.549,-0.366
0.350,0.716,-0.607,-26.245,1.404,-0.305
0.349,0.709,-0.630,-26.489,2.014,-0.427
0.353,0.680,-0.630,-23.315,1.404,-1.099
0.349,0.640,-0.629,-12.756,0.366,-0.916
0.345,0.654,-0.612,-5.676,-0.244,1.648
0.340,0.717,-0.609,-8.362,-0.122,5.249
0.339,0.759,-0.629,-9.033,1.099,6.165
0.339,0.732,-0.649,-7.935,1.709,3.540
0.339,0.713,-0.653,-6.836,1.099,2.014
0.345,0.738,-0.651,-4.639,0.183,3.113
0.339,0.746,-0.643,-6.470,-0.732,2.502
0.346,0.721,-0.609,-13.855,-2.258,0.061
0.350,0.666,-0.600,-17.944,-1.831,-1.648
0.349,0.644,-0.619,-14.221,-0.183,-1.038
0.347,0.696,-0.648,-7.202,0.916,2.502
0.347,0.747,-0.635,-4.395,-0.793,4.089
0.341,0.740,-0.599,-9.033,-2.563,1.709
0.343,0.705,-0.586,-14.038,-2.075,-0.977
0.343,0.691,-0.625,-17.578,0.549,-1.709
0.343,0.711,-0.677,-18.127,2.747,-1.038
0.346,0.691,-0.696,-18.555,1.343,-1.465
0.344,0.644,-0.693,-18.616,-1.282,-2.014
0.346,0.634,-0.687,-10.498,-3.296,-0.854
0.341,0.669,-0.675,-5.798,-4.883,2.319
0.338,0.696,-0.650,-6.531,-6.653,3.357
0.339,0.692,-0.617,-9.399,-7.874,2.197
0.335,0.671,-0.583,-12.451,-7.507,1.160
0.336,0.672,-0.598,-8.118,-2.563,2.563
0.345,0.714,-0.616,-8.850,-0.671,2.258
0.345,0.689,-0.625,-5.920,0.244,0.488
0.346,0.664,-0.609,-1.648,0.000,-0.793
0.345,0.675,-0.582,-0.366,0.122,-0.122
0.345,0.669,-0.594,1.404,2.441,0.061
0.347,0.657,-0.633,-1.709,4.883,-0.427
0.345,0.665,-0.661,-6.531,4.761,0.244
0.343,0.681,-0.671,-8.850,3.113,1.038
0.339,0.692,-0.651,-7.996,0.610,1.282
0.338,0.692,-0.625,-9.277,-1.038,0.793
0.338,0.692,-0.611,-11.780,-0.732,0.183
0.343,0.684,-0.624,-13.306,0.610,-0.732
0.346,0.671,-0.651,-13.916,2.319,-1.526
0.347,0.661,-0.678,-11.353,3.235,-1.770
0.352,0.655,-0.688,-9.094,2.502,-1.648
0.352,0.642,-0.692,-9.827,1.038,-1.770
0.354,0.642,-0.680,-14.771,-0.122,-1.709
0.350,0.646,-0.674,-12.085,-1.343,-0.244
0.351,0.658,-0.658,-11.047,-0.793,0.183
0.347,0.653,-0.680,-11.108,0.305,-0.122
0.349,0.659,-0.700,-9.827,0.977,-0.244
0.348,0.658,-0.705,-10.803,0.244,-0.366
0.353,0.634,-0.694,-10.010,-0.916,-1.343
0.349,0.618,-0.689,-8.728,-1.709,-0.916
0.345,0.641,-0.690,-6.409,-2.014,0.854
0.342,0.666,-0.681,-7.996,-2.502,1.953
0.339,0.671,-0.683,-9.888,-2.502,0.977
0.338,0.660,-0.685,-11.047,-2.136,-0.061
0.342,0.636,-0.682,-8.667,-2.136,-1.221
0.345,0.630,-0.675,-8.057,-2.136,-0.732
0.352,0.629,-0.679,-5.737,-1.465,-0.244
0.350,0.622,-0.684,-3.906,-0.977,-0.244
-0.305,1.582,0.674,-0.793,-30.884,-98.083
-0.323,1.498,0.621,1.343,-19.348,-114.990
-0.331,1.368,0.538,1.465,-8.850,-130.310
-0.348,1.316,0.474,1.526,-3.357,-139.832
-0.364,1.191,0.391,-0.854,0.488,-146.545
-0.325,1.067,0.434,-2.563,0.977,-149.902
-0.290,1.090,0.531,-1.282,0.488,-146.301
-0.243,1.046,0.525,1.099,6.653,-143.188
-0.187,0.986,0.541,5.554,13.062,-141.663
-0.123,1.029,0.522,10.254,19.836,-138.123
-0.075,1.058,0.462,13.000,27.283,-137.634
-0.062,0.940,0.327,13.672,33.997,-142.517
-0.041,0.799,0.245,12.878,37.109,-145.447
0.003,0.789,0.282,11.780,34.790,-142.761
0.001,0.705,0.141,8.728,36.316,-139.893
0.041,0.469,0.035,5.005,37.842,-138.489
0.085,0.415,0.151,5.493,28.625,-128.113
0.126,0.461,0.140,5.798,26.123,-113.098
0.154,0.359,0.076,5.005,27.771,-103.210
0.192,0.217,0.087,8.545,23.987,-92.224
0.234,0.182,0.028,12.268,22.278,-74.463
0.274,0.197,0.013,15.747,20.325,-55.176
0.294,0.243,0.014,17.273,17.212,-39.307
0.311,0.258,-0.013,17.090,15.808,-26.062
0.320,0.215,-0.059,17.761,14.038,-14.343
0.325,0.154,-0.077,18.738,10.498,-1.892
0.325,0.163,-0.052,18.616,5.676,13.062
0.337,0.308,-0.021,17.029,1.953,29.724
0.313,0.519,0.059,11.414,-1.587,41.077
0.309,0.775,0.112,4.944,-2.075,46.570
0.290,0.872,0.118,2.930,-0.366,43.335
0.271,0.851,0.083,5.493,1.099,36.682
0.262,0.801,0.084,9.033,1.099,32.654
0.243,0.794,0.135,10.742,-0.488,31.555
0.223,0.851,0.110,8.423,0.610,32.959
0.222,0.987,0.122,6.104,0.610,35.217
0.223,1.076,0.135,5.127,-0.061,33.630
0.220,1.129,0.134,4.517,0.427,28.809
0.210,1.131,0.154,4.211,0.122,23.621
0.205,1.141,0.156,3.906,-0.061,20.203
0.210,1.141,0.192,5.432,-0.610,17.334
0.207,1.147,0.209,6.470,-0.366,15.076
0.212,1.126,0.189,7.202,0.793,12.817
0.218,1.117,0.176,7.507,1.221,11.414
0.229,1.104,0.185,8.179,0.732,10.559
0.232,1.098,0.201,7.751,0.244,9.399
0.240,1.104,0.191,6.958,0.977,8.667
0.246,1.106,0.188,6.409,1.404,7.019
0.249,1.088,0.119,5.249,2.075,4.822
0.250,1.053,0.102,3.174,0.977,2.319
0.247,1.030,0.192,1.465,-2.747,0.244
0.248,1.040,0.215,0.183,-2.441,-0.732
0.250,1.001,0.209,2.014,-0.671,-1.648
0.243,0.991,0.153,2.502,0.854,-1.648
0.256,0.961,0.062,1.770,2.136,-1.160
0.265,0.952,0.063,0.977,-0.793,-1.099
0.250,0.921,0.151,-1.038,-4.028,-0.977
0.246,0.959,0.200,-1.343,-4.578,1.160
0.238,0.955,0.198,0.427,-2.563,2.075
0.235,0.942,0.172,2.563,-0.793,2.014
0.235,0.954,0.112,3.357,0.610,2.380
0.227,0.926,0.079,2.441,-0.183,1.587
0.220,0.913,0.165,1.160,-3.235,1.038
0.216,0.928,0.215,0.916,-3.967,2.075
0.215,0.933,0.189,2.136,-1.526,2.563
0.216,0.942,0.157,3.601,-0.122,2.625
0.219,0.938,0.145,3.296,-0.183,1.343
0.218,0.935,0.164,1.953,-0.916,-0.427
0.211,0.931,0.210,0.977,-1.526,-1.404
0.209,0.924,0.203,1.221,-0.183,-1.953
0.215,0.899,0.151,3.052,1.953,-2.136
0.219,0.882,0.172,5.432,1.282,-1.770
0.225,0.882,0.182,6.714,0.854,-0.916
0.231,0.916,0.176,8.240,1.709,-0.122
0.233,0.869,0.182,10.925,1.587,-0.916
0.242,0.911,0.161,8.728,1.770,-0.183
0.246,0.955,0.169,6.409,1.831,0.305
0.236,0.907,0.204,4.944,0.610,-2.136
0.229,0.895,0.208,3.174,0.854,-2.441
0.229,0.895,0.196,2.869,1.953,-1.221
0.230,0.885,0.199,2.258,2.197,-0.549
0.231,0.896,0.188,1.770,2.747,0.671
0.234,0.896,0.170,1.709,3.540,1.709
0.243,0.911,0.155,2.686,3.296,3.052
0.251,0.933,0.141,4.150,3.052,3.906
0.253,0.952,0.121,4.517,3.052,4.028
0.253,0.963,0.128,4.089,1.892,3.479
0.249,0.959,0.125,3.784,1.038,2.563
0.243,0.950,0.133,3.662,0.305,1.587
0.240,0.944,0.153,3.479,-0.671,1.160
0.236,0.940,0.163,3.174,-1.038,0.916
0.235,0.960,0.186,3.540,-1.038,0.671
0.232,0.920,0.208,5.798,-1.160,-0.549
0.230,0.916,0.191,6.348,-0.183,-0.793
0.239,0.918,0.210,8.179,-0.122,0.732
0.232,0.905,0.198,8.301,0.366,0.732
0.228,0.893,0.185,7.874,1.404,1.465
0.232,0.932,0.182,6.836,0.793,3.052
0.228,0.955,0.193,4.883,0.305,2.747
0.227,0.966,0.207,2.991,0.122,1.648
0.221,0.953,0.223,1.770,0.305,0.549
0.219,0.953,0.224,1.709,1.282,0.183
0.231,0.981,0.197,2.869,2.258,0.244
0.234,0.981,0.185,5.127,2.380,-1.038
0.228,0.961,0.182,6.348,1.709,-2.747
0.227,0.927,0.178,6.348,1.648,-3.723
0.230,0.922,0.186,5.737,1.160,-3.296
0.227,0.908,0.195,4.456,1.160,-3.052
0.228,0.943,0.209,3.540,1.221,-1.953
0.236,0.977,0.203,2.502,1.648,-1.221
0.236,0.966,0.205,1.953,1.892,-2.197
0.232,0.946,0.189,2.563,1.953,-3.174
0.234,0.938,0.175,3.235,2.075,-3.113
0.232,0.947,0.180,3.296,1.648,-2.686
0.232,0.948,0.197,4.089,0.977,-2.930
0.227,0.950,0.226,4.944,0.732,-3.357
0.222,0.946,0.213,5.554,1.892,-3.479
0.225,0.928,0.203,5.859,2.625,-3.540
0.227,0.918,0.215,5.920,2.441,-3.601
-0.468,-0.410,-1.604,25.452,-41.077,112.244
-0.441,-0.324,-1.427,21.912,-63.049,117.737
-0.369,-0.266,-1.179,17.456,-84.412,120.056
-0.337,-0.150,-1.030,15.076,-89.111,121.338
-0.319,-0.010,-1.117,17.456,-76.294,120.544
-0.307,0.038,-1.368,24.963,-64.331,111.877
-0.281,0.037,-1.618,32.104,-65.979,99.609
-0.270,-0.050,-1.793,37.170,-86.609,84.900
-0.306,-0.195,-1.861,37.659,-119.263,70.984
-0.344,-0.264,-1.771,32.410,-157.776,67.627
-0.343,-0.183,-1.492,24.475,-198.486,73.120
-0.324,-0.041,-1.082,15.869,-234.314,79.102
-0.253,0.049,-0.500,5.615,-247.070,80.261
-0.087,0.060,0.086,-1.770,-230.469,76.355
0.030,0.126,0.254,2.380,-179.504,73.120
0.092,0.229,-0.161,20.203,-104.736,70.251
0.134,0.250,-0.763,37.720,-51.880,61.523
0.203,0.216,-1.056,40.527,-46.021,50.415
0.223,0.104,-0.927,33.386,-71.289,31.555
0.215,-0.035,-0.622,26.001,-91.370,10.193
0.213,-0.094,-0.491,28.442,-85.144,3.906
0.242,-0.017,-0.481,34.607,-68.237,5.188
0.281,0.099,-0.502,38.513,-54.199,4.272
0.312,0.062,-0.483,36.621,-44.617,-4.517
0.329,-0.118,-0.422,30.884,-36.987,-16.235
0.333,-0.209,-0.439,26.245,-25.696,-18.555
0.321,-0.161,-0.584,25.635,-10.559,-12.634
0.332,-0.067,-0.706,25.269,-2.502,-8.423
0.347,-0.054,-0.670,19.836,-4.272,-11.047
0.351,-0.119,-0.562,12.329,-6.042,-16.113
0.338,-0.185,-0.529,8.301,-0.305,-18.494
0.329,-0.205,-0.663,9.644,12.817,-18.005
0.321,-0.199,-0.849,13.184,23.132,-17.334
0.315,-0.202,-0.943,13.123,22.034,-17.883
0.312,-0.223,-0.930,10.620,14.648,-18.677
0.302,-0.245,-0.879,7.385,9.033,-19.226
0.301,-0.234,-0.859,6.653,9.033,-18.005
0.314,-0.235,-0.855,7.568,11.292,-16.968
0.320,-0.282,-0.906,8.057,14.648,-18.494
0.307,-0.295,-0.982,7.690,17.517,-20.203
0.296,-0.268,-1.012,5.920,15.503,-18.616
0.293,-0.238,-0.997,4.456,11.658,-14.099
0.290,-0.231,-0.993,5.127,10.559,-13.184
0.294,-0.261,-1.013,6.531,11.719,-15.137
0.297,-0.306,-1.024,6.042,12.085,-17.334
0.278,-0.300,-1.017,4.028,10.803,-19.043
0.274,-0.276,-1.015,3.479,10.071,-12.817
0.272,-0.219,-1.023,4.517,10.559,-8.362
0.261,-0.269,-1.045,5.188,10.864,-11.292
0.244,-0.381,-1.073,3.967,10.803,-14.648
0.240,-0.414,-1.089,1.953,9.399,-10.803
0.242,-0.321,-1.091,1.465,6.775,-1.831
0.243,-0.177,-1.065,2.625,3.296,3.845
0.254,-0.143,-1.012,2.869,0.183,1.221
0.254,-0.245,-0.979,2.380,-0.427,-5.249
0.251,-0.299,-0.993,2.136,1.221,-6.409
0.249,-0.254,-1.031,4.395,2.747,-2.563
0.248,-0.165,-1.034,5.981,0.977,-0.122
0.254,-0.128,-0.979,5.920,-2.197,-1.648
0.267,-0.177,-0.902,5.432,-3.845,-5.859
0.274,-0.240,-0.865,4.395,-2.686,-8.362
0.266,-0.245,-0.877,3.540,1.099,-6.470
0.265,-0.185,-0.925,4.272,5.188,-2.991
0.264,-0.160,-0.957,4.578,6.531,-3.052
0.262,-0.195,-0.970,3.540,5.737,-5.981
0.265,-0.246,-0.973,2.686,4.456,-7.812
0.275,-0.266,-0.944,1.953,2.441,-6.775
0.278,-0.256,-0.913,1.953,1.099,-4.333
0.281,-0.224,-0.875,2.075,0.854,-2.563
0.301,-0.203,-0.845,1.770,2.441,-2.075
0.290,-0.228,-0.867,3.113,5.859,-3.357
0.285,-0.220,-0.914,3.418,8.301,-2.869
0.272,-0.214,-0.954,3.906,8.667,-2.441
0.258,-0.217,-0.967,3.296,6.897,-2.625
0.257,-0.217,-0.965,2.930,4.883,-2.563
0.257,-0.223,-0.953,2.808,3.357,-2.686
0.255,-0.230,-0.933,2.319,2.502,-2.808
0.258,-0.237,-0.922,1.465,2.808,-2.502
0.260,-0.231,-0.937,1.648,4.089,-1.892
0.255,-0.229,-0.966,2.075,5.005,-1.404
0.252,-0.234,-0.983,1.831,4.883,-1.404
0.254,-0.239,-0.983,1.709,3.540,-1.221
0.254,-0.254,-0.968,1.282,2.136,-1.282
0.249,-0.254,-0.956,0.671,1.648,-0.610
0.251,-0.246,-0.938,0.793,1.953,0.244
0.248,-0.228,-0.937,1.160,3.052,0.977
0.238,-0.225,-0.967,2.075,4.944,0.732
0.228,-0.225,-1.013,2.747,6.226,0.488
0.231,-0.216,-1.037,4.028,5.310,0.305
0.224,-0.219,-1.026,4.517,2.197,-0.427
0.223,-0.210,-0.986,3.967,-0.549,-0.244
0.225,-0.215,-0.965,3.723,-1.099,-0.366
0.220,-0.231,-0.992,3.540,0.671,-0.610
0.218,-0.213,-1.029,3.479,1.404,0.671
0.221,-0.173,-1.038,3.540,-0.244,1.709
0.232,-0.173,-1.008,3.174,-3.235,0.183
0.236,-0.220,-0.958,1.892,-5.371,-2.014
0.239,-0.228,-0.931,1.526,-4.822,-1.770
0.246,-0.195,-0.949,2.441,-2.625,0.000
0.254,-0.185,-0.977,3.357,-1.404,-0.183
0.262,-0.218,-0.971,3.113,-2.441,-1.465
0.260,-0.231,-0.926,1.953,-3.784,-1.465
0.263,-0.202,-0.893,1.404,-3.845,0.244
0.262,-0.186,-0.899,2.197,-1.587,0.549
0.257,-0.187,-0.934,2.686,1.160,-0.183
0.260,-0.179,-0.965,2.991,2.075,-0.671
0.260,-0.174,-0.970,2.869,1.404,-1.160
0.260,-0.177,-0.950,2.502,-0.122,-1.831
0.257,-0.187,-0.925,2.014,-0.793,-2.258
0.252,-0.193,-0.936,2.869,0.549,-2.686
0.249,-0.208,-0.972,3.967,2.136,-3.052
0.247,-0.251,-0.990,4.211,1.892,-3.723
0.241,-0.274,-0.979,2.563,0.305,-2.991
0.233,-0.240,-0.969,1.709,-0.732,-0.488
0.236,-0.188,-0.976,2.625,-0.549,1.404
0.241,-0.176,-0.982,3.235,-0.549,0.610
0.243,-0.197,-0.960,2.258,-2.014,-1.160
0.247,-0.183,-0.926,1.709,-2.808,-0.916
0.256,-0.160,-0.904,2.258,-2.258,-0.549
-0.777,0.867,-1.202,52.429,-40.039,139.099
-0.700,0.928,-1.189,55.786,-40.466,122.375
-0.703,0.817,-1.187,57.129,-41.016,90.820
-0.673,0.720,-1.188,56.213,-42.175,75.867
-0.686,0.824,-1.209,55.054,-43.213,76.111
-0.687,0.974,-1.254,56.213,-44.434,75.317
-0.673,0.989,-1.337,56.274,-47.729,65.674
-0.661,0.865,-1.415,52.307,-55.237,54.321
-0.669,0.824,-1.399,43.091,-69.702,51.025
-0.681,1.036,-1.295,35.522,-86.914,56.519
-0.661,1.226,-1.194,33.142,-97.717,54.443
-0.619,1.228,-1.126,31.799,-103.149,39.673
-0.580,1.061,-1.048,26.978,-106.750,22.888
-0.567,0.984,-1.036,23.499,-105.347,14.893
-0.571,1.063,-1.105,25.269,-99.548,12.878
-0.546,1.096,-1.169,27.893,-99.487,6.653
-0.501,0.959,-1.120,24.658,-107.178,-4.883
-0.471,0.863,-0.978,17.456,-117.798,-10.620
-0.446,0.846,-0.876,13.184,-122.742,-10.620
-0.434,0.870,-0.849,13.245,-117.859,-10.864
-0.401,0.909,-0.854,14.404,-112.793,-13.672
-0.368,0.922,-0.867,14.893,-111.816,-19.287
-0.339,0.850,-0.861,14.587,-113.892,-29.236
-0.295,0.745,-0.798,14.099,-118.347,-38.635
-0.228,0.583,-0.663,13.367,-123.230,-45.044
-0.146,0.475,-0.434,9.277,-126.648,-45.044
-0.087,0.522,-0.220,6.287,-122.498,-36.377
-0.050,0.574,-0.122,6.714,-106.873,-31.189
0.002,0.566,-0.133,8.972,-87.097,-32.593
0.055,0.478,-0.176,9.521,-71.594,-37.109
0.093,0.383,-0.193,6.409,-62.012,-39.795
0.122,0.310,-0.178,3.235,-55.359,-39.917
0.133,0.222,-0.200,1.587,-46.936,-39.734
0.147,0.140,-0.273,2.075,-36.255,-38.025
0.161,0.090,-0.317,2.625,-28.809,-33.081
0.165,0.101,-0.305,1.587,-24.963,-25.940
0.153,0.148,-0.300,0.488,-19.958,-18.433
0.137,0.188,-0.347,0.793,-12.451,-14.038
0.120,0.201,-0.417,2.441,-5.615,-12.329
0.094,0.181,-0.474,4.150,-0.916,-12.390
0.071,0.190,-0.528,6.287,3.357,-11.108
0.062,0.230,-0.600,9.399,7.629,-9.094
0.056,0.283,-0.633,12.146,9.399,-8.240
0.053,0.312,-0.612,13.672,8.972,-8.362
0.044,0.308,-0.616,14.771,11.353,-9.155
0.035,0.312,-0.700,16.663,17.639,-8.545
0.030,0.330,-0.782,17.273,21.301,-5.859
0.021,0.333,-0.813,15.076,20.203,-3.357
0.008,0.376,-0.844,12.390,19.226,0.122
0.004,0.460,-0.893,12.878,20.142,4.150
0.007,0.530,-0.925,14.587,19.836,4.944
0.002,0.534,-0.927,14.221,18.066,2.441
-0.012,0.503,-0.924,12.451,17.029,-0.366
-0.041,0.533,-0.945,12.695,18.127,0.427
-0.063,0.581,-0.984,14.282,19.836,1.038
-0.082,0.597,-1.028,14.893,20.264,-0.305
-0.099,0.561,-1.066,14.709,19.165,-2.808
-0.108,0.523,-1.079,14.038,16.418,-4.089
-0.112,0.553,-1.059,12.451,12.329,-2.441
-0.119,0.599,-1.043,11.292,9.766,-1.038
-0.116,0.599,-1.055,10.925,8.911,-1.953
-0.098,0.572,-1.057,9.521,6.836,-2.991
-0.087,0.546,-1.025,7.446,2.258,-2.869
-0.073,0.575,-0.961,5.066,-2.014,-1.099
-0.060,0.613,-0.919,3.845,-3.418,0.244
-0.049,0.594,-0.912,3.357,-2.563,-1.343
-0.036,0.547,-0.924,2.747,-1.465,-3.418
-0.025,0.494,-0.917,1.465,-1.648,-4.395
-0.018,0.493,-0.887,-0.183,-2.502,-3.052
-0.022,0.501,-0.844,-1.587,-2.930,-1.709
-0.023,0.503,-0.839,-1.343,-0.916,-1.587
-0.017,0.510,-0.872,0.793,2.563,-1.587
-0.010,0.504,-0.885,1.831,3.418,-2.075
-0.007,0.489,-0.870,1.465,2.014,-2.563
0.000,0.493,-0.843,1.038,0.427,-2.075
0.000,0.504,-0.813,0.183,-0.427,-1.465
0.000,0.527,-0.816,0.061,0.549,-1.038
0.000,0.536,-0.848,1.526,2.747,-1.587
-0.012,0.518,-0.866,1.770,3.113,-3.052
-0.016,0.485,-0.869,1.282,2.380,-4.028
-0.020,0.455,-0.859,0.610,1.709,-3.784
-0.025,0.482,-0.857,1.038,1.648,-1.587
-0.030,0.536,-0.868,2.258,2.014,0.488
-0.029,0.554,-0.871,3.296,1.770,-0.549
-0.025,0.524,-0.857,2.991,0.549,-2.747
-0.017,0.519,-0.828,2.625,-0.366,-3.296
-0.017,0.543,-0.801,2.686,-0.122,-2.625
-0.024,0.553,-0.801,2.686,2.014,-2.869
-0.029,0.546,-0.829,3.418,4.944,-4.028
-0.033,0.540,-0.867,4.578,6.958,-4.944
-0.032,0.512,-0.895,5.737,6.958,-6.104
-0.031,0.498,-0.883,4.395,4.517,-5.859
-0.035,0.499,-0.856,2.380,1.953,-4.272
-0.042,0.528,-0.859,1.953,2.075,-2.808
-0.031,0.572,-0.880,3.601,3.052,-2.075
-0.020,0.563,-0.869,4.028,1.953,-3.784
-0.019,0.524,-0.827,3.052,0.061,-6.470
-0.021,0.509,-0.821,3.174,1.282,-6.653
-0.026,0.522,-0.859,4.456,4.333,-5.493
-0.025,0.554,-0.901,5.493,5.737,-5.005
-0.020,0.552,-0.907,5.676,4.272,-6.470
-0.010,0.535,-0.869,5.493,1.587,-8.667
0.001,0.546,-0.839,6.165,0.793,-9.033
0.011,0.532,-0.843,7.080,2.441,-10.010
0.021,0.508,-0.867,7.874,4.211,-10.620
0.036,0.469,-0.880,7.385,3.967,-10.559
0.043,0.458,-0.871,5.249,2.380,-8.423
0.040,0.489,-0.850,4.150,1.099,-5.005
0.033,0.532,-0.832,4.639,1.648,-2.991
0.017,0.576,-0.831,5.920,3.967,-3.052
0.003,0.590,-0.872,8.179,7.385,-4.883
0.011,0.555,-0.917,11.658,9.644,-8.118
0.005,0.536,-0.868,11.475,7.019,-9.460
0.001,0.581,-0.807,10.498,5.127,-7.446
0.008,0.572,-0.829,12.024,9.216,-8.301
0.011,0.510,-0.871,12.146,12.695,-10.376
0.016,0.499,-0.861,8.789,11.536,-8.728
0.009,0.538,-0.848,6.226,10.925,-4.944
0.001,0.543,-0.857,4.517,12.024,-3.479
-0.777,0.867,-1.202,52.429,-40.039,139.099
-0.700,0.928,-1.189,55.786,-40.466,122.375
-0.703,0.817,-1.187,57.129,-41.016,90.820
-0.673,0.720,-1.188,56.213,-42.175,75.867
-0.686,0.824,-1.209,55.054,-43.213,76.111
-0.687,0.974,-1.254,56.213,-44.434,75.317
-0.673,0.989,-1.337,56.274,-47.729,65.674
-0.661,0.865,-1.415,52.307,-55.237,54.321
-0.669,0.824,-1.399,43.091,-69.702,51.025
-0.681,1.036,-1.295,35.522,-86.914,56.519
-0.661,1.226,-1.194,33.142,-97.717,54.443
-0.619,1.228,-1.126,31.799,-103.149,39.673
-0.580,1.061,-1.048,26.978,-106.750,22.888
-0.567,0.984,-1.036,23.499,-105.347,14.893
-0.571,1.063,-1.105,25.269,-99.548,12.878
-0.546,1.096,-1.169,27.893,-99.487,6.653
-0.501,0.959,-1.120,24.658,-107.178,-4.883
-0.471,0.863,-0.978,17.456,-117.798,-10.620
-0.446,0.846,-0.876,13.184,-122.742,-10.620
-0.434,0.870,-0.849,13.245,-117.859,-10.864
-0.401,0.909,-0.854,14.404,-112.793,-13.672
-0.368,0.922,-0.867,14.893,-111.816,-19.287
-0.339,0.850,-0.861,14.587,-113.892,-29.236
-0.295,0.745,-0.798,14.099,-118.347,-38.635
-0.228,0.583,-0.663,13.367,-123.230,-45.044
-0.146,0.475,-0.434,9.277,-126.648,-45.044
-0.087,0.522,-0.220,6.287,-122.498,-36.377
-0.050,0.574,-0.122,6.714,-106.873,-31.189
0.002,0.566,-0.133,8.972,-87.097,-32.593
0.055,0.478,-0.176,9.521,-71.594,-37.109
0.093,0.383,-0.193,6.409,-62.012,-39.795
0.122,0.310,-0.178,3.235,-55.359,-39.917
0.133,0.222,-0.200,1.587,-46.936,-39.734
0.147,0.140,-0.273,2.075,-36.255,-38.025
0.161,0.090,-0.317,2.625,-28.809,-33.081
0.165,0.101,-0.305,1.587,-24.963,-25.940
0.153,0.148,-0.300,0.488,-19.958,-18.433
0.137,0.188,-0.347,0.793,-12.451,-14.038
0.120,0.201,-0.417,2.441,-5.615,-12.329
0.094,0.181,-0.474,4.150,-0.916,-12.390
0.071,0.190,-0.528,6.287,3.357,-11.108
0.062,0.230,-0.600,9.399,7.629,-9.094
0.056,0.283,-0.633,12.146,9.399,-8.240
0.053,0.312,-0.612,13.672,8.972,-8.362
0.044,0.308,-0.616,14.771,11.353,-9.155
0.035,0.312,-0.700,16.663,17.639,-8.545
0.030,0.330,-0.782,17.273,21.301,-5.859
0.021,0.333,-0.813,15.076,20.203,-3.357
0.008,0.376,-0.844,12.390,19.226,0.122
0.004,0.460,-0.893,12.878,20.142,4.150
0.007,0.530,-0.925,14.587,19.836,4.944
0.002,0.534,-0.927,14.221,18.066,2.441
-0.012,0.503,-0.924,12.451,17.029,-0.366
-0.041,0.533,-0.945,12.695,18.127,0.427
-0.063,0.581,-0.984,14.282,19.836,1.038
-0.082,0.597,-1.028,14.893,20.264,-0.305
-0.099,0.561,-1.066,14.709,19.165,-2.808
-0.108,0.523,-1.079,14.038,16.418,-4.089
-0.112,0.553,-1.059,12.451,12.329,-2.441
-0.119,0.599,-1.043,11.292,9.766,-1.038
-0.116,0.599,-1.055,10.925,8.911,-1.953
-0.098,0.572,-1.057,9.521,6.836,-2.991
-0.087,0.546,-1.025,7.446,2.258,-2.869
-0.073,0.575,-0.961,5.066,-2.014,-1.099
-0.060,0.613,-0.919,3.845,-3.418,0.244
-0.049,0.594,-0.912,3.357,-2.563,-1.343
-0.036,0.547,-0.924,2.747,-1.465,-3.418
-0.025,0.494,-0.917,1.465,-1.648,-4.395
-0.018,0.493,-0.887,-0.183,-2.502,-3.052
-0.022,0.501,-0.844,-1.587,-2.930,-1.709
-0.023,0.503,-0.839,-1.343,-0.916,-1.587
-0.017,0.510,-0.872,0.793,2.563,-1.587
-0.010,0.504,-0.885,1.831,3.418,-2.075
-0.007,0.489,-0.870,1.465,2.014,-2.563
0.000,0.493,-0.843,1.038,0.427,-2.075
0.000,0.504,-0.813,0.183,-0.427,-1.465
0.000,0.527,-0.816,0.061,0.549,-1.038
0.000,0.536,-0.848,1.526,2.747,-1.587
-0.012,0.518,-0.866,1.770,3.113,-3.052
-0.016,0.485,-0.869,1.282,2.380,-4.028
-0.020,0.455,-0.859,0.610,1.709,-3.784
-0.025,0.482,-0.857,1.038,1.648,-1.587
-0.030,0.536,-0.868,2.258,2.014,0.488
-0.029,0.554,-0.871,3.296,1.770,-0.549
-0.025,0.524,-0.857,2.991,0.549,-2.747
-0.017,0.519,-0.828,2.625,-0.366,-3.296
-0.017,0.543,-0.801,2.686,-0.122,-2.625
-0.024,0.553,-0.801,2.686,2.014,-2.869
-0.029,0.546,-0.829,3.418,4.944,-4.028
-0.033,0.540,-0.867,4.578,6.958,-4.944
-0.032,0.512,-0.895,5.737,6.958,-6.104
-0.031,0.498,-0.883,4.395,4.517,-5.859
-0.035,0.499,-0.856,2.380,1.953,-4.272
-0.042,0.528,-0.859,1.953,2.075,-2.808
-0.031,0.572,-0.880,3.601,3.052,-2.075
-0.020,0.563,-0.869,4.028,1.953,-3.784
-0.019,0.524,-0.827,3.052,0.061,-6.470
-0.021,0.509,-0.821,3.174,1.282,-6.653
-0.026,0.522,-0.859,4.456,4.333,-5.493
-0.025,0.554,-0.901,5.493,5.737,-5.005
-0.020,0.552,-0.907,5.676,4.272,-6.470
-0.010,0.535,-0.869,5.493,1.587,-8.667
0.001,0.546,-0.839,6.165,0.793,-9.033
0.011,0.532,-0.843,7.080,2.441,-10.010
0.021,0.508,-0.867,7.874,4.211,-10.620
0.036,0.469,-0.880,7.385,3.967,-10.559
0.043,0.458,-0.871,5.249,2.380,-8.423
0.040,0.489,-0.850,4.150,1.099,-5.005
0.033,0.532,-0.832,4.639,1.648,-2.991
0.017,0.576,-0.831,5.920,3.967,-3.052
0.003,0.590,-0.872,8.179,7.385,-4.883
0.011,0.555,-0.917,11.658,9.644,-8.118
0.005,0.536,-0.868,11.475,7.019,-9.460
0.001,0.581,-0.807,10.498,5.127,-7.446
0.008,0.572,-0.829,12.024,9.216,-8.301
0.011,0.510,-0.871,12.146,12.695,-10.376
0.016,0.499,-0.861,8.789,11.536,-8.728
0.009,0.538,-0.848,6.226,10.925,-4.944
0.001,0.543,-0.857,4.517,12.024,-3.479

-0.686,-0.385,-1.730,21.545,78.430,36.987
-0.740,-0.509,-1.721,26.855,57.373,61.157
-0.776,-0.256,-1.694,35.889,40.344,95.703
-0.783,-0.002,-1.660,47.363,27.832,112.122
-0.792,0.070,-1.577,55.298,13.489,110.229
-0.789,0.156,-1.489,62.927,0.610,109.497
-0.817,0.279,-1.413,70.496,-8.667,115.295
-0.841,0.321,-1.359,74.890,-15.747,129.333
-0.881,0.347,-1.375,75.867,-19.836,151.489
-0.907,0.433,-1.408,75.134,-25.269,177.429
-0.983,0.949,-1.416,73.303,-34.973,171.814
-0.930,1.038,-1.457,71.411,-50.842,149.597
-0.924,1.069,-1.322,70.068,-71.838,117.310
-0.875,1.068,-1.133,67.322,-90.942,97.839
-0.810,1.160,-1.000,67.627,-95.154,90.271
-0.782,1.236,-1.019,67.871,-86.426,81.604
-0.779,1.297,-1.128,68.420,-80.078,71.045
-0.772,1.368,-1.190,66.528,-83.923,61.157
-0.795,1.365,-1.185,61.157,-94.238,49.622
-0.821,1.315,-1.183,56.030,-104.614,37.476
-0.786,1.343,-1.152,53.772,-115.295,29.297
-0.744,1.422,-1.027,50.598,-129.822,22.034
-0.734,1.480,-0.881,46.326,-143.311,10.803
-0.697,1.401,-0.679,42.358,-154.236,-3.845
-0.647,1.342,-0.421,35.950,-157.288,-15.564
-0.599,1.300,-0.265,33.264,-147.766,-22.339
-0.552,1.240,-0.266,32.410,-129.395,-28.809
-0.496,1.194,-0.381,32.776,-112.061,-33.875
-0.437,1.082,-0.472,30.518,-104.065,-40.466
-0.366,1.002,-0.400,23.743,-107.483,-45.227
-0.323,0.954,-0.279,16.052,-111.511,-47.424
-0.284,0.860,-0.277,12.817,-105.957,-52.734
-0.230,0.778,-0.362,14.282,-96.741,-57.922
-0.162,0.670,-0.390,14.893,-94.116,-63.354
-0.098,0.487,-0.318,12.512,-96.741,-69.519
-0.011,0.304,-0.156,7.812,-98.206,-70.374
0.050,0.213,-0.000,3.967,-91.858,-63.232
0.065,0.268,0.001,2.930,-73.242,-47.668
0.058,0.321,-0.198,7.019,-48.889,-38.452
0.064,0.275,-0.400,10.681,-34.119,-38.330
0.066,0.198,-0.432,9.949,-33.691,-38.696
0.059,0.152,-0.351,7.996,-36.926,-35.889
0.065,0.154,-0.308,8.606,-32.898,-30.457
0.071,0.206,-0.329,11.658,-23.560,-24.963
0.062,0.277,-0.359,14.648,-15.442,-21.423
0.056,0.296,-0.387,17.090,-8.667,-21.423
0.051,0.271,-0.425,19.592,-2.563,-22.522
0.046,0.270,-0.461,22.095,2.869,-21.484
0.033,0.295,-0.505,23.743,7.874,-18.494
0.032,0.314,-0.541,24.841,12.024,-15.869
0.016,0.378,-0.575,24.658,14.954,-12.512
-0.008,0.446,-0.603,23.987,17.212,-9.949
-0.024,0.496,-0.653,24.963,19.714,-8.911
-0.028,0.519,-0.720,25.330,22.034,-9.216
-0.035,0.487,-0.759,24.353,21.729,-9.949
-0.040,0.498,-0.764,21.362,18.860,-7.812
-0.053,0.570,-0.781,19.531,17.883,-3.601
-0.065,0.611,-0.812,19.104,18.250,-2.808
-0.067,0.608,-0.842,19.714,18.372,-4.578
-0.065,0.570,-0.867,19.531,17.700,-6.104
-0.089,0.555,-0.896,18.921,16.968,-5.615
-0.116,0.641,-0.930,19.104,16.052,-1.831
-0.132,0.720,-0.972,19.714,15.076,-0.183
-0.145,0.719,-1.002,20.386,11.414,-3.540
-0.131,0.707,-0.985,20.752,6.470,-7.446
-0.123,0.696,-0.965,21.240,1.404,-9.033
-0.097,0.672,-0.946,23.315,-2.136,-10.498
-0.076,0.662,-0.907,24.780,-5.432,-10.986
-0.056,0.693,-0.842,25.757,-9.216,-9.583
-0.028,0.694,-0.775,26.245,-10.803,-9.155
-0.004,0.697,-0.753,26.367,-9.338,-8.606
0.003,0.727,-0.763,25.757,-6.958,-6.531
-0.004,0.781,-0.778,25.208,-5.798,-5.493
-0.008,0.821,-0.778,25.818,-5.676,-6.836
0.000,0.788,-0.778,26.917,-5.798,-10.742
0.023,0.696,-0.784,26.794,-5.737,-14.709
0.046,0.670,-0.748,24.841,-7.446,-13.306
0.057,0.713,-0.673,22.156,-10.376,-8.789
0.057,0.770,-0.617,20.203,-9.827,-6.104
0.048,0.801,-0.627,19.836,-5.371,-6.653
0.073,0.747,-0.691,19.592,-0.732,-9.338
0.078,0.661,-0.705,14.709,-0.061,-10.193
0.049,0.682,-0.661,5.920,-3.052,-3.906
-0.167,0.564,-0.671,-2.747,-4.456,1.892
0.167,0.580,-0.393,-24.353,-20.508,11.169
0.071,1.123,0.172,-62.683,-42.908,39.917
-0.102,0.786,-0.141,-53.223,7.996,17.212
-0.074,0.610,-1.056,-10.986,79.346,-3.723
-0.062,0.603,-1.541,0.366,92.651,-1.038
-0.119,0.515,-1.495,-14.648,49.377,-1.343
-0.171,0.600,-1.169,-23.010,1.953,3.296
-0.155,0.750,-0.938,-12.512,-10.925,5.127
-0.082,0.738,-0.899,3.784,1.160,-4.211
-0.030,0.632,-0.883,10.803,4.883,-12.268
-0.038,0.570,-0.800,7.019,0.549,-11.292
-0.071,0.581,-0.749,3.601,-1.526,-5.188
-0.086,0.658,-0.765,1.953,-0.122,0.977
-0.079,0.763,-0.806,-0.122,-0.061,6.042
-0.080,0.744,-0.802,-2.563,-2.747,4.150
-0.067,0.717,-0.745,-3.113,-6.348,0.793
-0.051,0.752,-0.685,-2.075,-8.118,0.854
-0.043,0.733,-0.666,-0.305,-5.737,-1.343
-0.039,0.684,-0.693,1.587,-2.136,-3.662
-0.039,0.690,-0.731,2.502,0.061,-3.601
-0.037,0.700,-0.754,3.052,0.000,-3.662
-0.033,0.677,-0.748,2.747,-1.221,-5.188
-0.020,0.639,-0.745,2.502,-2.136,-5.981
0.003,0.602,-0.746,1.404,-3.174,-4.761
0.029,0.604,-0.700,-1.587,-5.249,-1.831
0.032,0.655,-0.639,-3.662,-6.897,1.343
0.038,0.687,-0.637,-2.380,-4.150,1.831
0.048,0.655,-0.678,0.244,0.427,-0.549
0.043,0.620,-0.705,1.343,2.319,-1.709
0.033,0.648,-0.710,1.587,2.380,-0.671
0.033,0.690,-0.695,2.258,1.892,0.549
0.032,0.684,-0.643,0.732,0.916,-0.122
0.020,0.676,-0.610,-1.709,1.770,-0.366
0.012,0.690,-0.626,-2.319,5.493,0.427
-0.001,0.690,-0.680,-2.258,9.399,0.122

-0.476,-0.599,-1.447,-10.620,79.346,29.663
-0.455,-0.420,-1.376,-4.944,67.200,76.904
-0.419,-0.091,-1.324,4.944,59.204,99.304
-0.398,-0.058,-1.260,11.536,54.443,96.008
-0.407,-0.202,-1.249,18.311,53.406,86.670
-0.424,-0.212,-1.313,25.757,55.237,90.210
-0.442,-0.073,-1.357,29.053,51.636,102.905
-0.546,0.081,-1.342,26.733,41.016,112.793
-0.651,0.198,-1.434,28.748,35.889,118.469
-0.657,0.210,-1.607,38.086,35.400,123.779
-0.637,0.204,-1.679,41.565,18.005,127.625
-0.678,0.234,-1.548,34.973,-14.771,129.822
-0.735,0.327,-1.334,30.212,-41.626,143.188
-0.762,0.399,-1.194,33.569,-47.791,178.711
-0.713,0.762,-1.150,40.161,-40.833,216.064
-0.754,1.076,-1.267,48.767,-32.776,177.246
-0.749,0.952,-1.403,48.096,-32.959,132.385
-0.802,0.844,-1.483,49.255,-39.856,92.651
-0.831,0.820,-1.508,52.795,-52.063,77.759
-0.836,0.882,-1.533,55.176,-63.782,73.669
-0.815,0.826,-1.494,54.016,-77.271,68.176
-0.802,0.773,-1.373,48.401,-93.140,63.965
-0.819,0.928,-1.265,44.312,-104.919,68.665
-0.832,1.170,-1.187,43.823,-111.877,72.021
-0.813,1.340,-1.111,47.791,-114.990,60.303
-0.784,1.283,-1.095,49.316,-115.295,36.682
-0.755,1.148,-1.121,50.171,-116.638,16.113
-0.700,1.120,-1.116,50.720,-123.474,4.578
-0.647,1.136,-1.093,50.598,-134.216,-2.930
-0.585,1.039,-1.015,46.814,-147.888,-14.160
-0.505,0.859,-0.788,36.438,-168.213,-23.743
-0.421,0.849,-0.447,25.757,-179.932,-21.790
-0.319,0.909,-0.205,21.362,-173.096,-16.724
-0.176,0.867,-0.056,18.738,-155.823,-18.799
-0.090,0.750,-0.059,17.151,-132.446,-23.743
-0.079,0.637,-0.239,18.005,-106.567,-27.893
-0.044,0.611,-0.447,21.973,-87.952,-27.649
0.027,0.554,-0.458,21.057,-86.426,-28.809
0.070,0.425,-0.311,15.259,-90.820,-32.532
0.084,0.339,-0.210,11.414,-86.609,-32.471
0.103,0.350,-0.246,14.465,-71.411,-27.893
0.133,0.358,-0.305,18.982,-57.373,-25.330
0.152,0.328,-0.280,19.470,-50.293,-26.611
0.160,0.285,-0.229,18.982,-43.457,-27.710
0.156,0.274,-0.215,20.203,-31.921,-26.672
0.159,0.301,-0.280,22.217,-18.188,-23.743
0.151,0.291,-0.381,22.156,-6.836,-22.278
0.128,0.280,-0.453,19.348,-1.221,-21.301
0.105,0.291,-0.510,17.090,1.892,-18.738
0.099,0.278,-0.565,15.442,4.639,-16.968
0.093,0.233,-0.599,13.794,6.348,-16.052
0.083,0.214,-0.619,13.611,8.789,-13.916
0.071,0.274,-0.659,14.954,12.756,-9.583
0.050,0.324,-0.735,17.517,17.944,-7.202
0.042,0.344,-0.800,19.165,20.691,-7.507
0.034,0.366,-0.821,19.348,20.569,-7.507
0.018,0.381,-0.811,18.799,19.409,-7.080
0.003,0.394,-0.831,19.104,21.057,-6.287
-0.010,0.371,-0.918,19.714,24.475,-5.432
-0.030,0.362,-1.008,18.005,25.330,-3.174
-0.039,0.436,-1.045,14.709,20.935,1.953
-0.044,0.513,-1.007,12.451,14.038,5.249
-0.047,0.560,-0.938,11.230,9.399,4.578
-0.057,0.577,-0.934,11.719,10.254,2.625
-0.065,0.570,-0.993,12.512,13.672,0.793
-0.066,0.583,-1.035,12.512,14.038,0.000
-0.075,0.594,-1.025,11.719,10.864,-0.977
-0.078,0.594,-0.987,10.803,7.507,-1.831
-0.078,0.593,-0.964,9.216,6.104,-1.892
-0.078,0.621,-0.966,7.019,6.042,-0.854
-0.082,0.654,-0.954,4.272,4.700,0.427
-0.082,0.686,-0.924,1.404,2.502,0.671
-0.070,0.682,-0.891,-1.343,1.587,-0.488
-0.058,0.636,-0.886,-3.479,2.686,-2.319
-0.050,0.615,-0.914,-4.761,4.700,-2.808
-0.037,0.617,-0.926,-5.371,4.456,-2.625
-0.020,0.600,-0.892,-7.202,2.502,-3.662
-0.009,0.559,-0.850,-7.935,1.648,-5.493
0.000,0.549,-0.839,-7.385,3.357,-5.981
-0.004,0.552,-0.847,-6.897,4.883,-5.737
-0.008,0.537,-0.862,-7.080,5.554,-6.409
-0.009,0.500,-0.880,-8.118,5.676,-6.653
-0.005,0.479,-0.871,-9.583,3.784,-5.676
0.001,0.477,-0.830,-10.925,1.526,-3.723
0.003,0.482,-0.804,-11.658,1.831,-2.563
0.004,0.486,-0.819,-10.742,4.395,-2.136
0.001,0.477,-0.851,-9.155,6.958,-2.808
-0.002,0.440,-0.864,-8.423,7.385,-3.967
-0.006,0.444,-0.850,-7.568,6.958,-3.906
-0.013,0.441,-0.857,-5.066,7.935,-4.028
-0.025,0.419,-0.901,-2.075,9.766,-5.432
-0.033,0.439,-0.916,0.610,9.216,-5.188
-0.038,0.440,-0.898,2.380,6.836,-5.493
-0.043,0.421,-0.880,2.502,5.249,-5.981
-0.048,0.428,-0.895,2.563,4.761,-4.395
-0.048,0.445,-0.916,2.563,4.028,-2.502
-0.043,0.481,-0.886,0.366,0.977,-0.671
-0.036,0.490,-0.832,-1.099,-1.404,0.122
-0.035,0.471,-0.807,-1.526,-0.793,-0.549
-0.030,0.513,-0.826,-0.244,1.770,0.732
-0.026,0.544,-0.857,0.977,3.906,0.488
-0.022,0.521,-0.868,1.587,3.479,-1.587
-0.018,0.518,-0.838,1.709,1.465,-2.625
-0.013,0.553,-0.791,2.136,1.038,-2.502
-0.009,0.521,-0.792,3.418,3.723,-4.578
-0.009,0.480,-0.834,3.113,6.897,-5.737
-0.022,0.468,-0.876,1.099,7.202,-4.150
-0.030,0.490,-0.887,-1.770,4.944,-1.709
-0.029,0.519,-0.863,-3.845,2.014,-0.183
-0.015,0.509,-0.824,-4.883,0.183,-0.732
-0.006,0.502,-0.796,-5.188,0.671,-1.282
-0.001,0.517,-0.807,-5.066,2.991,-0.549
0.001,0.470,-0.848,-5.310,5.493,-1.343
0.000,0.415,-0.880,-5.432,7.019,-1.709
-0.006,0.426,-0.903,-4.456,7.507,0.366
-0.027,0.428,-0.932,-3.296,8.362,1.465
-0.043,0.439,-0.972,-1.709,9.094,2.197
-0.063,0.454,-0.999,-0.549,8.179,2.563
-0.083,0.475,-1.005,-0.122,5.554,3.052

0.457,1.923,0.444,93.628,54.382,56.946
0.384,1.960,0.367,83.008,71.411,35.461
0.317,1.928,0.220,74.097,88.135,16.296
0.249,1.850,0.078,63.904,99.487,1.709
0.158,1.827,0.008,49.744,103.088,-6.836
0.040,1.840,-0.047,36.377,105.591,-13.611
-0.055,1.904,-0.213,26.062,112.305,-21.606
-0.161,1.883,-0.403,13.672,117.188,-33.325
-0.218,1.660,-0.526,-1.221,113.953,-49.561
-0.237,1.357,-0.574,-17.273,106.201,-60.974
-0.235,1.215,-0.553,-32.959,97.412,-58.472
-0.227,1.118,-0.526,-47.241,92.224,-50.659
-0.274,1.009,-0.559,-62.195,93.750,-46.875
-0.310,0.899,-0.674,-72.510,100.525,-43.518
-0.321,0.726,-0.819,-78.552,107.056,-43.030
-0.328,0.585,-0.929,-80.566,109.314,-41.443
-0.309,0.549,-0.960,-78.979,106.628,-35.461
-0.264,0.527,-0.884,-78.247,100.525,-30.273
-0.240,0.499,-0.755,-79.834,95.886,-27.832
-0.244,0.433,-0.720,-80.872,99.792,-26.917
-0.242,0.337,-0.792,-81.299,107.910,-26.733
-0.273,0.183,-0.887,-82.825,114.258,-26.489
-0.294,0.024,-1.005,-84.595,118.774,-24.353
-0.340,-0.114,-1.167,-82.520,122.864,-18.860
-0.391,-0.177,-1.239,-78.552,123.718,-11.963
-0.401,-0.141,-1.276,-69.946,118.591,0.122
-0.388,-0.097,-1.311,-59.082,112.915,10.071
-0.364,-0.105,-1.319,-51.331,106.750,14.954
-0.320,-0.108,-1.231,-46.570,95.520,21.301
-0.288,-0.078,-1.096,-45.044,84.778,30.029
-0.277,-0.224,-1.073,-43.518,82.703,34.302
-0.337,-0.280,-1.155,-44.067,89.233,36.926
-0.396,-0.218,-1.291,-42.908,93.811,48.950
-0.421,-0.148,-1.392,-39.856,88.379,71.960
-0.486,-0.062,-1.430,-33.752,76.904,83.008
-0.518,-0.005,-1.523,-23.010,70.190,85.999
-0.513,-0.072,-1.639,-9.521,67.200,83.557
-0.446,-0.174,-1.667,1.160,54.199,82.886
-0.454,-0.090,-1.568,3.601,31.677,93.689
-0.487,0.063,-1.440,3.845,13.916,107.117
-0.505,0.158,-1.355,10.437,6.348,111.023
-0.533,0.259,-1.330,20.935,5.554,111.633
-0.580,0.316,-1.328,28.687,3.723,117.126
-0.642,0.582,-1.368,35.156,4.028,118.835
-0.678,0.709,-1.485,44.434,1.648,105.469
-0.697,0.703,-1.579,51.941,-10.681,88.745
-0.694,0.644,-1.542,52.429,-31.494,79.834
-0.686,0.658,-1.442,48.706,-54.443,78.857
-0.750,0.845,-1.347,44.312,-72.510,84.229
-0.786,1.044,-1.257,41.809,-88.013,85.144
-0.805,1.128,-1.199,40.710,-98.267,76.355
-0.789,1.198,-1.165,39.368,-105.042,65.063
-0.777,1.232,-1.067,37.231,-114.441,53.345
-0.745,1.261,-0.956,36.865,-124.084,41.992
-0.725,1.257,-0.937,38.147,-123.901,29.480
-0.721,1.238,-1.043,41.504,-121.033,16.907
-0.685,1.302,-1.058,42.480,-129.761,8.057
-0.647,1.278,-0.848,36.682,-149.048,-1.953
-0.543,1.073,-0.496,27.954,-166.809,-14.526
-0.460,0.887,-0.228,21.912,-164.185,-19.348
-0.383,0.907,-0.144,20.508,-144.836,-12.268
-0.300,1.055,-0.250,22.156,-121.094,-4.883
-0.247,1.014,-0.377,19.958,-106.018,-10.742
-0.195,0.822,-0.399,13.489,-102.844,-21.484
-0.127,0.670,-0.324,7.996,-103.821,-25.208
-0.073,0.650,-0.235,5.066,-102.417,-22.278
-0.013,0.621,-0.194,4.822,-95.581,-20.996
0.045,0.492,-0.100,4.944,-87.891,-23.682
0.157,0.439,0.078,2.502,-81.909,-21.973
0.184,0.448,0.130,2.502,-63.965,-16.724
0.205,0.424,0.058,3.296,-41.382,-15.930
0.211,0.377,-0.071,4.333,-21.484,-16.846
0.192,0.343,-0.172,5.005,-8.362,-17.273
0.156,0.344,-0.244,5.188,-0.427,-16.235
0.125,0.370,-0.326,6.348,6.836,-14.771
0.105,0.429,-0.405,8.545,12.634,-13.428
0.087,0.502,-0.437,10.193,15.137,-13.367
0.071,0.520,-0.454,11.963,17.334,-16.174
0.067,0.506,-0.486,14.832,21.973,-19.958
0.048,0.599,-0.529,17.578,26.917,-19.836
0.027,0.665,-0.624,19.043,31.921,-20.508
0.010,0.608,-0.743,16.846,35.156,-24.780
0.001,0.571,-0.810,10.559,32.166,-24.048
-0.010,0.631,-0.810,2.930,25.513,-18.188
-0.032,0.667,-0.797,-3.418,21.179,-14.404
-0.069,0.664,-0.845,-6.287,22.461,-14.709
-0.087,0.683,-0.952,-5.188,26.062,-15.015
-0.101,0.644,-1.039,-4.211,26.245,-17.273
-0.099,0.603,-1.042,-6.042,20.996,-18.738
-0.097,0.585,-1.015,-7.080,15.747,-17.212
-0.111,0.568,-1.023,-6.897,14.404,-15.564
-0.119,0.613,-1.048,-6.592,14.160,-12.329
-0.109,0.644,-1.033,-7.202,11.292,-10.803
-0.106,0.609,-0.966,-8.911,7.324,-12.268
-0.106,0.590,-0.924,-9.705,6.714,-11.902
-0.105,0.619,-0.945,-9.277,9.094,-9.888
-0.100,0.621,-0.961,-9.583,9.521,-10.193
-0.092,0.547,-0.935,-10.925,7.446,-13.000
-0.090,0.448,-0.917,-11.780,6.897,-14.099
-0.098,0.402,-0.949,-12.329,7.874,-10.620
-0.106,0.439,-1.010,-12.329,8.240,-4.944
-0.108,0.474,-1.034,-12.024,5.005,-2.197
-0.099,0.443,-1.009,-11.475,-0.244,-3.174
-0.081,0.411,-0.962,-10.376,-4.089,-3.906
-0.060,0.432,-0.896,-8.301,-6.531,-2.625
-0.041,0.453,-0.836,-6.348,-6.897,-2.014
-0.022,0.450,-0.818,-3.845,-4.944,-2.441
-0.013,0.428,-0.800,-2.380,-2.441,-2.930
-0.033,0.442,-0.807,-1.892,0.122,-2.075
-0.024,0.454,-0.797,0.061,1.831,-1.221
-0.044,0.446,-0.795,0.854,3.357,-0.366
-0.055,0.488,-0.824,2.869,5.310,1.343
-0.066,0.547,-0.848,5.066,6.042,2.380
-0.060,0.585,-0.832,6.409,3.906,1.099
-0.046,0.598,-0.782,6.958,1.282,-1.038
-0.047,0.614,-0.738,6.836,0.183,-1.953
-0.057,0.648,-0.740,7.019,2.136,-2.258
-0.043,0.672,-0.754,6.531,3.113,-2.991
0.003,0.676,-0.761,5.432,2.625,-4.517

-0.721,1.025,-1.103,32.471,-23.071,169.983
-0.801,1.232,-1.168,38.635,-24.231,137.878
-0.948,1.272,-1.283,43.640,-23.560,93.689
-1.000,1.275,-1.400,52.856,-28.137,65.430
-0.985,1.212,-1.466,62.866,-39.551,42.480
-1.009,1.104,-1.496,67.261,-57.739,23.865
-1.018,1.095,-1.580,70.374,-75.439,14.160
-0.980,1.149,-1.664,74.158,-96.252,8.606
-0.939,1.168,-1.582,70.618,-130.859,0.549
-0.855,1.079,-1.095,53.406,-178.955,-7.629
-0.721,1.143,-0.456,36.011,-220.825,-7.812
-0.673,1.266,-0.073,30.273,-207.703,-7.996
-0.651,1.314,-0.177,39.307,-167.603,-16.541
-0.620,1.318,-0.601,50.537,-129.822,-28.687
-0.552,1.243,-0.911,55.298,-120.850,-42.847
-0.456,1.115,-0.800,45.471,-143.738,-56.885
-0.373,1.029,-0.442,29.358,-172.058,-65.918
-0.290,0.874,-0.087,19.104,-181.274,-72.876
-0.091,0.620,0.216,13.367,-171.082,-75.989
0.064,0.339,0.339,11.719,-144.043,-72.083
0.072,0.284,0.242,11.780,-106.506,-56.030
0.080,0.589,-0.033,16.418,-70.740,-29.053
0.142,0.694,-0.222,18.188,-51.514,-22.156
0.185,0.504,-0.240,13.855,-49.866,-34.424
0.212,0.344,-0.120,7.812,-52.124,-38.574
0.223,0.365,-0.020,5.737,-47.363,-30.884
0.236,0.417,-0.032,6.775,-33.020,-23.682
0.237,0.427,-0.080,6.653,-18.921,-21.484
0.236,0.431,-0.119,5.371,-7.935,-19.836
0.225,0.387,-0.191,4.395,2.136,-19.714
0.195,0.364,-0.283,3.479,12.085,-18.677
0.172,0.362,-0.378,4.089,20.142,-15.564
0.159,0.339,-0.467,4.578,26.062,-13.733
0.133,0.341,-0.542,4.700,29.663,-10.803
0.099,0.378,-0.620,5.066,32.410,-6.958
0.076,0.432,-0.711,7.019,34.485,-3.845
0.061,0.457,-0.773,7.629,33.325,-2.625
0.023,0.448,-0.776,6.287,28.931,-2.380
-0.028,0.495,-0.804,6.897,27.039,-0.732
-0.039,0.580,-0.893,11.719,28.992,1.831
-0.038,0.615,-0.960,13.733,27.832,0.916
-0.051,0.606,-0.963,11.902,21.179,-1.221
-0.067,0.606,-0.941,10.925,14.954,-1.648
-0.089,0.655,-0.938,11.963,11.780,-0.427
-0.095,0.703,-0.950,12.329,9.766,1.160
-0.092,0.727,-0.902,9.277,5.432,1.831
-0.106,0.774,-0.785,3.662,0.305,3.723
-0.126,0.830,-0.727,0.854,1.465,4.517
-0.133,0.852,-0.797,2.747,8.911,1.831
-0.127,0.804,-0.889,4.028,13.550,-1.770
-0.125,0.780,-0.896,1.221,10.193,-3.174
-0.123,0.808,-0.837,-2.502,4.333,-2.563
-0.115,0.767,-0.813,-4.761,2.808,-4.028
-0.100,0.708,-0.842,-5.188,4.578,-6.287
-0.091,0.720,-0.864,-5.188,5.005,-5.310
-0.074,0.700,-0.857,-5.920,3.601,-5.615
-0.057,0.591,-0.823,-7.141,2.319,-8.301
-0.045,0.600,-0.792,-7.812,2.625,-5.432
-0.041,0.719,-0.787,-6.470,4.822,-1.282
-0.031,0.721,-0.780,-5.127,6.104,-3.357
-0.039,0.616,-0.761,-5.920,6.653,-8.362
-0.046,0.613,-0.773,-5.859,8.057,-7.568
-0.052,0.659,-0.811,-4.456,9.644,-5.005
-0.066,0.636,-0.840,-5.066,9.033,-6.287
-0.078,0.659,-0.809,-5.615,5.676,-6.409
-0.086,0.727,-0.746,-5.127,2.747,-5.920
-0.083,0.711,-0.724,-2.991,4.272,-9.216
-0.080,0.629,-0.740,-2.808,7.507,-13.367
-0.083,0.584,-0.782,-3.235,9.399,-12.634
-0.086,0.605,-0.818,-3.906,9.521,-9.338
-0.084,0.642,-0.817,-4.150,7.263,-7.446
-0.076,0.631,-0.798,-5.310,4.822,-8.118
-0.072,0.602,-0.770,-6.775,3.174,-8.850
-0.066,0.636,-0.754,-7.080,2.991,-7.263
-0.068,0.629,-0.757,-6.836,4.272,-7.263
-0.069,0.593,-0.740,-7.690,5.371,-8.362
-0.034,0.608,-0.747,-5.127,7.080,-6.470
-0.050,0.650,-0.824,-3.845,10.620,-5.005
-0.045,0.642,-0.864,-3.235,9.705,-7.629
-0.040,0.598,-0.841,-3.723,5.127,-10.681
-0.034,0.567,-0.793,-3.784,1.587,-11.169
-0.024,0.565,-0.773,-2.991,1.465,-10.132
-0.025,0.574,-0.780,-3.540,2.563,-7.996
-0.028,0.580,-0.761,-5.920,2.258,-6.042
-0.038,0.604,-0.741,-7.324,2.502,-4.639
-0.053,0.635,-0.771,-5.981,5.737,-4.150
-0.057,0.636,-0.829,-4.761,7.935,-5.310
-0.055,0.588,-0.852,-4.517,7.080,-7.568
-0.057,0.556,-0.837,-5.188,4.089,-8.057
-0.056,0.558,-0.833,-4.639,2.808,-6.653
-0.047,0.551,-0.833,-3.906,2.319,-5.676
-0.032,0.567,-0.819,-4.333,1.160,-4.211
-0.020,0.576,-0.786,-6.042,-0.244,-2.930
-0.015,0.551,-0.757,-7.263,-0.061,-2.808
-0.027,0.548,-0.762,-7.507,2.136,-2.014
-0.041,0.575,-0.815,-6.226,5.493,-1.038
-0.045,0.568,-0.861,-5.066,7.019,-1.343
-0.043,0.555,-0.856,-5.127,5.310,-1.770
-0.056,0.546,-0.809,-5.493,2.686,-1.648
-0.071,0.572,-0.805,-4.089,2.930,-0.793
-0.081,0.604,-0.847,-1.465,5.127,-0.244
-0.075,0.622,-0.874,-0.244,5.310,-1.221
-0.084,0.613,-0.845,-1.221,1.160,-2.197
-0.096,0.587,-0.798,-2.747,-1.709,-3.296
-0.118,0.614,-0.817,-1.099,-0.366,-2.991
-0.121,0.673,-0.879,2.563,2.014,-2.930
-0.114,0.653,-0.892,4.578,0.671,-6.104
-0.100,0.628,-0.825,5.310,-2.869,-9.399
-0.083,0.626,-0.755,5.859,-3.845,-9.888
-0.073,0.624,-0.761,7.446,-0.854,-10.010
-0.068,0.612,-0.818,7.751,2.625,-9.827
-0.064,0.597,-0.848,5.859,1.770,-8.606
-0.057,0.620,-0.825,2.441,-2.014,-6.226
-0.038,0.627,-0.769,-1.343,-5.127,-4.395
-0.020,0.613,-0.709,-3.967,-6.104,-3.845
-0.003,0.649,-0.687,-5.066,-4.089,-2.380
0.006,0.641,-0.719,-4.700,-0.244,-2.869
0.018,0.605,-0.758,-4.456,2.197,-4.517
0.030,0.598,-0.761,-5.615,2.258,-4.456

-0.583,0.451,-1.782,-20.386,-22.217,-43.701
-0.607,0.423,-1.897,-11.536,-41.870,-51.331
-0.606,0.417,-1.885,-5.249,-72.693,-59.082
-0.552,0.395,-1.748,0.671,-105.591,-67.688
-0.476,0.183,-1.546,6.165,-134.888,-81.238
-0.444,-0.057,-1.301,10.315,-160.461,-90.393
-0.432,-0.113,-1.028,16.174,-175.964,-83.862
-0.359,-0.020,-0.806,24.963,-171.936,-62.073
-0.292,0.040,-0.812,40.100,-155.762,-47.424
-0.214,-0.146,-0.913,51.758,-147.156,-49.255
-0.152,-0.302,-0.902,58.167,-151.428,-51.208
-0.108,-0.298,-0.718,63.171,-164.734,-49.683
-0.091,-0.282,-0.463,71.289,-171.875,-42.358
-0.033,-0.265,-0.332,90.027,-164.368,-30.945
0.064,-0.289,-0.197,111.694,-150.330,-18.127
0.147,-0.278,-0.088,129.333,-138.672,-10.132
0.195,-0.223,-0.024,140.442,-125.305,2.319
0.242,-0.075,-0.032,146.912,-112.976,17.578
0.269,0.044,-0.063,148.804,-104.919,27.710
0.289,0.102,0.030,146.606,-105.286,31.738
0.352,0.213,0.160,145.874,-106.262,38.635
0.443,0.231,0.349,144.836,-102.966,43.213
0.551,0.308,0.517,143.860,-93.872,48.767
0.596,0.473,0.634,141.785,-78.064,65.430
0.672,0.693,0.701,139.038,-56.030,94.055
0.680,0.903,0.637,136.536,-31.006,80.566
0.655,0.741,0.463,129.333,-5.737,52.612
0.593,0.586,0.240,126.282,13.489,37.842
0.593,0.671,0.143,122.498,20.203,47.607
0.598,0.878,0.142,116.272,20.630,59.998
0.591,0.998,0.167,107.056,21.301,62.317
0.549,1.011,0.160,99.243,27.039,56.641
0.514,1.039,0.093,96.069,37.354,52.734
0.496,1.112,0.008,96.619,46.997,50.964
0.458,1.149,-0.021,95.276,52.429,47.180
0.389,1.117,-0.012,92.285,55.664,41.626
0.351,1.194,-0.046,89.417,61.646,41.626
0.320,1.294,-0.072,85.266,66.406,43.152
0.297,1.354,-0.005,76.904,65.308,40.588
0.299,1.412,0.107,67.871,64.636,37.231
0.254,1.461,0.175,56.641,70.679,34.058
0.202,1.501,0.153,45.593,82.031,29.968
0.167,1.458,0.040,36.804,95.703,23.865
0.089,1.355,-0.106,28.320,106.384,16.357
0.003,1.306,-0.320,21.362,114.258,13.062
-0.041,1.307,-0.549,16.907,116.699,11.475
-0.053,1.249,-0.663,10.254,107.971,7.507
-0.065,1.174,-0.584,0.732,90.942,3.296
-0.045,1.237,-0.422,-5.066,77.026,4.761
-0.005,1.315,-0.270,-8.972,71.960,4.333
0.045,1.328,-0.106,-16.541,70.618,-0.793
0.016,1.313,-0.012,-26.855,75.745,-6.165
0.013,1.239,0.004,-35.583,86.426,-13.489
-0.002,1.125,-0.035,-42.419,99.060,-19.287
-0.021,1.019,-0.100,-52.063,109.436,-21.484
-0.117,0.963,-0.229,-62.561,118.286,-20.935
-0.219,0.834,-0.482,-69.458,128.723,-21.484
-0.266,0.595,-0.751,-72.998,134.705,-23.010
-0.306,0.384,-0.955,-73.608,131.958,-18.127
-0.296,0.456,-1.009,-70.190,121.094,-2.502
-0.247,0.660,-0.885,-66.162,105.408,11.780
-0.204,0.613,-0.671,-67.017,94.238,10.864
-0.151,0.516,-0.500,-70.007,93.445,8.545
-0.113,0.451,-0.447,-72.144,102.234,13.489
-0.139,0.347,-0.480,-75.745,115.051,18.799
-0.239,0.371,-0.599,-78.308,126.892,28.442
-0.453,0.479,-0.894,-75.256,138.977,37.842
-0.554,0.532,-1.355,-63.904,149.231,39.551
-0.528,0.457,-1.643,-51.392,145.569,33.997
-0.433,0.291,-1.561,-48.157,104.126,31.799
-0.318,0.274,-1.198,-50.720,51.758,40.344
-0.297,0.391,-0.792,-51.392,28.809,53.040
-0.276,0.485,-0.644,-48.828,41.870,59.509
-0.218,0.479,-0.764,-41.992,62.317,59.082
-0.173,0.371,-0.848,-40.039,71.045,57.678
-0.244,0.240,-0.738,-45.166,66.833,60.364
-0.519,0.384,-0.866,-45.837,72.021,72.266
-0.620,0.593,-1.397,-27.161,95.520,81.787
-0.517,0.485,-1.789,-9.521,100.708,73.242
-0.412,0.271,-1.734,-2.563,53.894,66.040
-0.346,0.295,-1.271,-10.620,-11.414,75.500
-0.324,0.478,-0.775,-14.221,-41.992,91.003
-0.312,0.562,-0.630,-11.902,-22.827,95.520
-0.297,0.613,-0.780,-4.822,-0.854,95.886
-0.389,0.690,-0.897,-0.366,7.935,94.910
-0.481,0.825,-0.968,3.967,7.935,93.079
-0.507,0.887,-1.089,13.245,8.972,85.876
-0.526,0.860,-1.210,20.081,5.127,75.012
-0.520,0.802,-1.292,23.254,-5.249,67.200
-0.497,0.707,-1.314,23.193,-22.400,63.599
-0.491,0.580,-1.259,15.991,-45.532,66.895
-0.541,0.654,-1.168,4.761,-67.627,80.017
-0.608,1.000,-1.098,-1.709,-84.290,97.473
-0.595,1.206,-1.098,-0.916,-94.177,98.450
-0.568,1.147,-1.103,-0.305,-103.638,82.825
-0.599,1.154,-0.998,-0.732,-116.272,69.824
-0.594,1.406,-0.935,4.883,-126.831,63.477
-0.568,1.567,-0.995,17.029,-129.211,44.678
-0.543,1.564,-1.054,25.269,-136.047,13.855
-0.494,1.368,-0.922,21.912,-155.090,-15.198
-0.438,1.030,-0.578,6.287,-179.871,-34.363
-0.388,0.950,-0.241,-7.568,-189.148,-30.212
-0.389,1.098,-0.177,-9.766,-171.082,-12.573
-0.333,1.243,-0.269,-7.568,-145.874,-4.150
-0.286,1.286,-0.423,-4.272,-128.601,-8.423
-0.275,1.223,-0.511,-4.944,-123.352,-20.447
-0.261,1.137,-0.535,-7.446,-125.122,-31.616
-0.207,1.071,-0.505,-8.606,-128.113,-39.551
-0.142,1.002,-0.357,-11.475,-132.507,-46.143
-0.055,0.799,-0.144,-15.137,-132.629,-53.711
-0.005,0.528,-0.019,-16.174,-119.995,-58.228
0.034,0.465,-0.090,-9.644,-94.116,-47.791
0.096,0.594,-0.278,-0.549,-70.129,-31.738
0.108,0.568,-0.370,0.000,-60.303,-28.809
0.100,0.457,-0.315,-4.272,-60.730,-31.128
0.128,0.472,-0.260,-2.808,-57.312,-27.100
0.144,0.492,-0.255,1.221,-48.462,-22.888
0.159,0.430,-0.231,1.160,-41.138,-22.522
0.174,0.374,-0.239,1.221,-32.837,-20.935

-0.399,0.486,-2.007,-89.233,196.045,4.700
-0.339,0.243,-1.609,-114.746,120.117,-0.366
-0.272,0.130,-1.012,-130.798,60.669,5.005
-0.246,0.168,-0.547,-127.991,70.007,17.761
-0.208,0.197,-0.501,-110.413,108.582,25.146
-0.194,0.171,-0.681,-95.459,144.348,27.527
-0.194,0.074,-0.787,-86.914,162.048,26.855
-0.225,-0.134,-0.747,-81.665,165.527,25.879
-0.295,-0.282,-0.759,-72.083,173.035,27.832
-0.431,-0.251,-0.855,-58.899,183.167,35.889
-0.543,-0.225,-1.112,-50.659,191.162,59.082
-0.700,-0.175,-1.490,-44.312,199.524,81.360
-0.807,-0.119,-1.914,-33.936,195.435,97.229
-0.829,-0.077,-2.124,-23.071,159.912,114.319
-0.671,0.033,-1.936,-18.127,94.727,130.005
-0.554,0.042,-1.458,-20.081,31.128,140.930
-0.486,0.005,-0.955,-23.499,-0.122,141.174
-0.487,0.050,-0.652,-18.555,13.123,145.508
-0.425,0.178,-0.623,-5.615,40.466,153.564
-0.369,0.222,-0.672,0.793,58.899,155.151
-0.409,0.169,-0.663,-0.122,66.711,150.391
-0.650,0.181,-0.709,-4.700,71.350,151.794
-0.960,0.327,-1.225,1.221,90.576,163.513
-1.129,0.482,-1.888,14.343,119.507,187.866
-1.113,0.809,-2.368,34.546,93.140,181.274
-1.056,0.870,-2.236,34.058,14.343,160.095
-0.991,0.773,-1.705,21.606,-78.369,138.855
-0.930,0.619,-1.121,18.738,-129.211,123.840
-0.874,0.504,-0.796,22.583,-125.732,114.929
-0.832,0.642,-0.800,30.640,-101.440,117.859
-0.831,0.862,-0.910,36.865,-88.440,119.019
-0.894,0.963,-1.009,37.415,-87.097,107.605
-0.926,0.924,-1.202,39.368,-86.975,90.088
-0.942,0.810,-1.417,45.837,-87.585,72.815
-0.985,0.908,-1.568,49.744,-104.797,64.209
-1.048,1.212,-1.638,53.345,-137.207,57.739
-1.088,1.387,-1.699,59.692,-171.143,34.790
-1.064,1.344,-1.686,63.782,-207.825,-1.770
-1.036,1.127,-1.437,55.420,-253.967,-36.865
-0.956,0.772,-0.963,35.706,-304.871,-61.340
-0.793,0.509,-0.153,14.160,-340.210,-63.171
-0.610,0.625,0.525,2.808,-324.890,-40.344
-0.434,0.951,0.665,14.954,-260.803,-14.648
-0.316,1.216,0.188,37.109,-177.673,-13.123
-0.246,1.216,-0.487,53.040,-121.887,-34.119
-0.191,0.947,-0.869,50.537,-115.112,-64.331
-0.071,0.587,-0.720,34.546,-144.287,-84.900
-0.010,0.389,-0.340,22.461,-171.021,-88.501
0.037,0.375,-0.084,22.400,-170.105,-80.750
0.119,0.339,-0.059,33.752,-146.484,-70.862
0.217,0.180,0.034,33.997,-126.221,-64.270
0.286,0.244,0.284,20.752,-112.671,-45.410
0.310,0.516,0.386,13.000,-83.984,-21.057
0.274,0.573,0.143,16.235,-39.124,-16.541
0.218,0.463,-0.277,23.132,0.122,-24.414
0.179,0.472,-0.578,29.358,16.663,-25.818
0.177,0.549,-0.649,29.602,12.756,-24.658
0.175,0.513,-0.554,25.085,2.869,-28.931
0.168,0.375,-0.469,20.203,0.977,-33.508
0.177,0.297,-0.461,17.395,7.751,-29.785
0.166,0.372,-0.491,13.550,15.869,-19.165
0.118,0.473,-0.567,9.094,23.804,-11.414
0.093,0.528,-0.667,6.470,30.762,-9.399
0.076,0.553,-0.794,7.996,35.278,-11.169
0.063,0.541,-0.856,8.911,34.119,-15.198
0.064,0.517,-0.841,8.057,28.137,-18.005
0.076,0.484,-0.787,5.615,23.804,-18.494
0.066,0.448,-0.774,3.418,23.926,-17.517
0.038,0.448,-0.842,4.456,28.259,-14.587
0.002,0.503,-0.963,6.958,32.166,-10.681
-0.008,0.573,-1.066,9.521,31.921,-8.667
0.004,0.587,-1.079,9.399,23.926,-10.376
0.030,0.535,-0.977,5.554,12.146,-13.062
0.042,0.461,-0.843,0.549,4.700,-12.878
0.022,0.451,-0.823,-0.916,7.385,-8.240
-0.001,0.551,-0.920,2.014,15.564,-2.014
-0.006,0.646,-1.004,5.859,18.799,0.122
-0.016,0.672,-1.039,7.202,15.808,-2.747
-0.014,0.644,-1.014,6.470,9.460,-7.751
-0.003,0.586,-0.943,4.639,3.357,-10.803
0.002,0.566,-0.873,2.869,1.099,-10.315
0.000,0.611,-0.875,2.441,3.113,-7.446
0.006,0.636,-0.927,2.747,5.920,-6.897
0.029,0.596,-0.924,0.671,4.089,-9.033
0.042,0.542,-0.844,-3.723,-0.366,-10.315
0.047,0.553,-0.784,-5.249,-0.610,-8.362
0.049,0.601,-0.806,-3.418,4.089,-6.653
0.056,0.571,-0.883,-1.221,8.423,-8.545
0.061,0.489,-0.928,-1.038,8.850,-11.292
0.063,0.488,-0.906,-2.686,4.272,-9.216
0.062,0.563,-0.849,-3.418,-0.061,-4.944
0.064,0.593,-0.807,-3.479,-0.854,-5.188
0.070,0.552,-0.795,-3.967,0.610,-7.874
0.084,0.507,-0.779,-5.859,2.136,-8.423
0.088,0.570,-0.752,-8.057,3.296,-5.066
0.079,0.615,-0.754,-8.911,5.676,-4.272
0.072,0.583,-0.790,-7.935,9.277,-7.874
0.067,0.546,-0.831,-7.019,11.047,-10.376
0.068,0.538,-0.853,-7.935,10.498,-10.498
0.057,0.481,-0.866,-9.827,8.850,-11.230
0.022,0.423,-0.907,-9.949,8.728,-11.536
0.014,0.463,-0.969,-7.507,8.606,-7.446
0.026,0.534,-0.975,-7.080,4.456,-3.967
0.034,0.561,-0.893,-9.155,-2.136,-4.944
0.042,0.542,-0.807,-9.827,-4.944,-7.446
0.049,0.515,-0.791,-8.057,-1.953,-9.033
0.054,0.550,-0.817,-6.531,2.014,-7.812
0.080,0.529,-0.830,-7.080,3.357,-7.446
0.095,0.348,-0.807,-9.460,3.113,-10.620
0.073,0.349,-0.775,-10.681,3.845,-5.005
0.055,0.559,-0.796,-8.423,7.568,6.226
0.050,0.634,-0.868,-6.042,12.329,6.470
0.042,0.543,-0.917,-6.042,12.390,-0.916
0.046,0.487,-0.907,-6.348,8.667,-2.930
0.048,0.513,-0.873,-6.958,4.700,-0.854
0.048,0.566,-0.847,-8.423,2.808,0.916
0.052,0.573,-0.831,-10.010,1.953,0.305
0.053,0.552,-0.804,-12.390,1.282,-1.404
0.054,0.520,-0.790,-14.282,1.465,-2.014

-0.589,0.574,-1.572,29.419,34.241,102.234
-0.578,0.689,-1.519,30.029,-0.427,103.333
-0.587,0.698,-1.270,27.100,-34.058,98.267
-0.540,0.569,-1.043,25.513,-58.533,91.431
-0.538,0.577,-0.910,26.306,-61.157,92.957
-0.574,0.824,-0.950,27.649,-53.528,100.464
-0.607,1.033,-1.133,32.043,-47.119,97.778
-0.649,1.030,-1.261,35.889,-50.232,80.994
-0.667,0.919,-1.314,37.659,-62.805,62.561
-0.665,0.830,-1.371,39.063,-78.369,52.063
-0.656,0.865,-1.390,38.757,-96.680,49.805
-0.655,0.969,-1.276,35.278,-122.925,48.767
-0.649,1.032,-1.045,29.846,-148.560,43.274
-0.609,0.938,-0.771,24.292,-167.358,34.241
-0.533,0.846,-0.480,17.639,-170.410,29.297
-0.499,1.020,-0.430,18.982,-155.762,34.241
-0.490,1.270,-0.533,25.879,-137.207,33.569
-0.480,1.333,-0.610,29.663,-129.578,16.602
-0.457,1.250,-0.643,28.748,-128.540,-5.493
-0.422,1.126,-0.663,28.564,-129.456,-24.597
-0.392,0.999,-0.615,26.978,-133.484,-37.415
-0.336,0.851,-0.398,20.630,-140.198,-44.067
-0.291,0.869,-0.196,14.832,-139.099,-40.466
-0.234,0.999,-0.186,15.320,-121.643,-34.973
-0.164,0.965,-0.291,17.212,-100.830,-40.405
-0.049,0.760,-0.290,12.695,-91.187,-51.270
0.024,0.591,-0.186,5.981,-86.792,-53.772
0.036,0.558,-0.157,2.380,-75.562,-47.791
0.018,0.592,-0.354,3.967,-54.688,-40.833
0.020,0.627,-0.613,7.507,-39.307,-38.452
0.046,0.557,-0.661,6.836,-42.175,-41.199
0.093,0.430,-0.464,0.977,-53.650,-43.457
0.125,0.369,-0.291,-1.099,-54.138,-39.490
0.117,0.418,-0.280,0.610,-39.734,-31.677
0.131,0.525,-0.392,3.967,-21.790,-25.452
0.132,0.495,-0.527,6.348,-9.033,-27.100
0.129,0.361,-0.564,6.531,-4.822,-31.616
0.130,0.334,-0.532,6.897,-2.991,-28.625
0.138,0.353,-0.468,7.568,0.977,-21.790
0.098,0.347,-0.487,6.836,9.705,-16.724
0.056,0.424,-0.646,7.874,21.973,-10.071
0.023,0.520,-0.787,9.644,27.893,-5.737
0.003,0.550,-0.816,10.193,24.231,-7.629
0.003,0.538,-0.754,10.803,18.494,-10.925
0.010,0.436,-0.702,11.169,16.479,-12.878
-0.013,0.399,-0.775,11.780,20.325,-9.399
-0.030,0.528,-0.882,11.536,22.278,-0.488
-0.041,0.657,-0.891,9.460,16.663,4.028
-0.038,0.684,-0.804,6.897,8.911,0.427
-0.030,0.662,-0.717,7.080,6.409,-3.967
-0.018,0.663,-0.712,9.216,10.742,-6.470
0.000,0.578,-0.765,11.169,16.357,-8.606
-0.006,0.424,-0.823,9.583,18.738,-9.155
-0.030,0.517,-0.874,7.996,18.066,0.366
-0.047,0.739,-0.879,6.592,14.282,10.193
-0.049,0.795,-0.828,4.578,9.460,7.080
-0.047,0.728,-0.754,4.089,7.690,-1.343
-0.047,0.653,-0.753,6.226,10.925,-5.188
-0.050,0.616,-0.847,7.690,16.602,-4.883
-0.068,0.644,-0.953,6.348,17.578,-1.526
-0.081,0.687,-0.982,3.113,11.902,1.038
-0.081,0.703,-0.942,-0.061,3.784,1.221
-0.071,0.668,-0.886,-1.282,-1.282,-0.793
-0.053,0.648,-0.835,-2.075,-3.174,-1.221
-0.040,0.666,-0.813,-2.380,-2.869,-0.122
-0.032,0.652,-0.810,-2.808,-1.587,-0.122
-0.034,0.625,-0.818,-2.747,-0.671,-0.732
-0.030,0.647,-0.830,-2.502,-0.366,0.977
-0.022,0.669,-0.818,-2.686,-1.282,1.648
-0.013,0.665,-0.792,-2.563,-2.258,0.549
-0.018,0.643,-0.775,-2.136,-2.075,-0.977
-0.019,0.662,-0.781,-0.793,-0.793,-1.038
-0.019,0.660,-0.803,-0.244,-0.122,-1.404
-0.016,0.628,-0.804,-1.160,-0.977,-2.197
-0.014,0.612,-0.778,-1.953,-2.686,-2.014
-0.011,0.602,-0.749,-2.075,-3.418,-1.465
-0.000,0.604,-0.732,-1.221,-2.930,-0.305
0.002,0.607,-0.709,-1.831,-2.075,0.916
0.005,0.642,-0.696,-2.136,-0.671,2.563
-0.004,0.637,-0.719,-1.343,2.258,1.709
-0.012,0.596,-0.774,0.427,5.432,-0.183
-0.029,0.593,-0.793,1.770,5.920,0.122
-0.056,0.615,-0.765,2.808,4.578,1.404
-0.025,0.602,-0.725,4.578,5.615,1.221
-0.022,0.599,-0.780,7.202,10.132,1.953
-0.027,0.643,-0.833,6.409,11.169,3.723
-0.039,0.683,-0.861,4.211,7.202,4.333
-0.028,0.661,-0.848,2.869,1.648,1.526
-0.023,0.600,-0.785,2.075,-3.052,-1.038
-0.019,0.622,-0.724,1.465,-5.127,0.305
-0.027,0.674,-0.696,1.465,-3.906,2.808
-0.019,0.708,-0.734,2.319,-0.977,2.136
-0.008,0.682,-0.767,2.869,0.488,-0.671
-0.006,0.649,-0.740,1.221,-1.770,-2.197
-0.020,0.669,-0.693,-0.671,-3.113,-1.770
-0.036,0.704,-0.715,-0.244,-0.854,-1.465
-0.022,0.690,-0.763,0.671,2.136,-2.563
0.002,0.659,-0.751,-1.343,1.038,-3.662
0.009,0.612,-0.695,-4.761,-1.038,-3.723
-0.012,0.592,-0.676,-6.348,0.854,-2.319
-0.012,0.649,-0.740,-4.089,6.409,0.610
-0.020,0.676,-0.826,-2.869,10.559,0.916
-0.023,0.667,-0.852,-4.150,7.874,-0.916
-0.021,0.622,-0.816,-6.653,2.747,-2.319
-0.037,0.595,-0.782,-8.118,0.183,-2.319
-0.041,0.613,-0.818,-6.958,1.404,-0.916
-0.039,0.636,-0.856,-5.310,2.258,-0.366
-0.036,0.650,-0.838,-5.371,-0.366,-1.038
-0.035,0.646,-0.795,-5.615,-2.563,-2.258
-0.025,0.630,-0.781,-4.272,-2.136,-3.662
-0.016,0.620,-0.781,-3.296,-0.854,-4.578
-0.015,0.614,-0.774,-3.296,-0.732,-4.578
-0.013,0.601,-0.783,-3.662,-0.366,-4.517
-0.018,0.602,-0.797,-4.578,-0.183,-3.296
-0.016,0.615,-0.783,-5.920,-1.099,-2.075
0.001,0.563,-0.757,-7.080,-1.343,-2.014
-0.005,0.540,-0.761,-7.690,0.305,-0.854
-0.022,0.608,-0.809,-7.080,3.601,2.808
-0.034,0.642,-0.851,-6.104,4.822,3.357

-0.417,0.662,-1.793,-22.888,51.453,-25.146
-0.424,0.520,-1.858,-20.935,17.029,-34.302
-0.430,0.456,-1.731,-18.616,-22.949,-38.818
-0.449,0.353,-1.612,-13.916,-51.025,-43.335
-0.448,0.249,-1.573,-6.348,-66.589,-46.875
-0.438,0.228,-1.584,2.991,-77.698,-46.204
-0.445,0.267,-1.586,11.475,-92.407,-45.044
-0.442,0.315,-1.553,18.494,-110.901,-47.363
-0.452,0.304,-1.500,26.245,-129.944,-54.077
-0.441,0.073,-1.326,31.921,-152.283,-64.636
-0.364,-0.146,-1.021,34.851,-179.626,-69.458
-0.275,-0.140,-0.673,41.016,-180.603,-54.077
-0.175,-0.048,-0.570,58.350,-158.325,-31.433
-0.104,0.024,-0.654,76.843,-137.024,-22.095
-0.081,0.001,-0.789,87.891,-127.075,-20.325
-0.094,0.023,-0.789,93.262,-129.944,-16.907
-0.086,0.021,-0.687,96.252,-138.428,-14.221
-0.042,-0.065,-0.527,101.929,-144.531,-12.756
0.018,-0.148,-0.312,108.704,-148.804,-8.545
0.022,-0.100,0.005,113.342,-147.034,2.991
0.078,0.103,0.194,125.244,-130.127,19.165
0.110,0.233,0.178,140.869,-101.318,26.184
0.148,0.275,0.115,152.100,-76.721,25.574
0.197,0.327,0.121,156.677,-64.941,26.917
0.211,0.440,0.201,156.311,-59.692,31.372
0.206,0.583,0.227,157.349,-52.429,32.715
0.215,0.637,0.196,161.560,-41.626,30.029
0.245,0.614,0.224,157.715,-35.950,25.818
0.307,0.619,0.330,153.320,-32.349,26.062
0.342,0.734,0.409,148.621,-25.940,32.532
0.340,0.799,0.389,144.592,-12.573,35.583
0.388,0.773,0.279,142.578,1.221,33.569
0.393,0.799,0.234,132.385,7.629,36.011
0.409,0.891,0.271,121.460,9.155,43.335
0.403,1.072,0.325,112.610,12.146,49.133
0.410,1.179,0.274,107.422,22.217,46.753
0.379,1.191,0.176,101.807,32.471,37.964
0.352,1.232,0.102,96.497,37.170,31.311
0.313,1.270,0.061,91.003,37.842,25.818
0.286,1.318,0.075,82.764,35.767,21.545
0.267,1.367,0.192,70.251,31.860,18.860
0.249,1.439,0.307,57.739,32.349,16.541
0.226,1.405,0.339,49.866,42.664,11.169
0.199,1.375,0.244,39.551,58.105,6.287
0.161,1.432,0.096,33.630,72.815,4.395
0.158,1.521,0.041,26.917,77.759,1.587
0.135,1.455,0.056,17.578,78.674,-7.263
0.118,1.366,0.104,5.371,80.872,-15.686
0.117,1.365,0.105,-6.470,85.754,-17.090
0.096,1.252,-0.015,-18.494,95.215,-20.081
0.056,1.033,-0.180,-30.273,103.638,-24.292
0.047,1.003,-0.250,-40.588,104.675,-18.372
0.046,1.067,-0.243,-49.133,102.051,-10.071
0.027,1.058,-0.239,-56.274,103.699,-10.193
0.034,1.031,-0.197,-63.171,106.812,-12.756
0.015,0.986,-0.165,-72.327,111.694,-15.198
-0.023,0.873,-0.252,-78.674,122.620,-18.311
-0.130,0.771,-0.400,-82.153,133.789,-20.264
-0.216,0.749,-0.594,-80.872,143.188,-17.334
-0.224,0.584,-0.828,-75.134,149.231,-16.846
-0.185,0.338,-1.042,-71.838,146.973,-14.648
-0.159,0.364,-1.109,-71.472,132.080,0.610
-0.123,0.693,-0.915,-74.219,107.300,21.729
-0.097,0.775,-0.602,-79.224,89.478,24.841
-0.040,0.575,-0.390,-82.703,90.088,15.686
-0.028,0.525,-0.312,-85.266,103.210,18.799
-0.099,0.565,-0.393,-89.233,122.131,26.611
-0.157,0.558,-0.669,-88.745,140.991,28.259
-0.230,0.420,-0.896,-84.534,149.780,25.452
-0.317,0.331,-1.024,-81.482,147.644,26.855
-0.412,0.279,-1.190,-75.439,143.188,33.264
-0.473,0.316,-1.367,-64.636,140.015,41.382
-0.476,0.435,-1.547,-54.688,128.540,51.392
-0.446,0.453,-1.612,-50.049,103.088,55.664
-0.393,0.341,-1.450,-51.086,67.688,57.007
-0.344,0.403,-1.229,-50.476,37.781,65.979
-0.311,0.582,-1.068,-46.326,25.330,76.965
-0.243,0.540,-0.940,-42.236,23.682,75.867
-0.168,0.383,-0.802,-41.321,26.672,73.059
-0.128,0.249,-0.726,-38.452,34.241,77.942
-0.154,0.334,-0.644,-35.156,43.884,90.271
-0.293,0.619,-0.641,-30.518,53.589,103.394
-0.519,0.890,-0.896,-22.156,67.993,105.103
-0.591,0.891,-1.399,-8.728,82.214,93.811
-0.560,0.655,-1.738,-0.610,78.308,77.576
-0.508,0.420,-1.763,-0.488,33.691,73.547
-0.467,0.492,-1.462,-5.371,-24.841,88.440
-0.484,0.693,-1.125,-12.634,-66.956,106.140
-0.492,0.875,-0.885,-16.479,-77.576,112.549
-0.474,1.024,-0.727,-14.404,-72.510,109.375
-0.432,1.078,-0.616,-7.751,-64.636,97.229
-0.415,1.017,-0.532,-2.441,-54.932,81.482
-0.465,0.984,-0.632,2.502,-40.161,70.496
-0.508,0.975,-0.997,9.766,-24.536,63.721
-0.516,0.891,-1.319,13.916,-24.414,57.251
-0.556,0.837,-1.380,9.338,-48.645,53.955
-0.577,0.976,-1.185,4.639,-85.815,57.556
-0.549,1.097,-0.949,2.991,-113.159,56.274
-0.492,1.155,-0.724,4.089,-124.573,47.058
-0.491,1.280,-0.650,7.202,-121.765,35.645
-0.498,1.395,-0.755,14.343,-114.441,19.653
-0.484,1.329,-0.932,21.301,-112.366,-3.540
-0.443,1.170,-0.965,20.386,-124.207,-25.696
-0.430,1.122,-0.893,12.573,-144.958,-38.635
-0.416,1.037,-0.843,7.080,-160.278,-48.340
-0.408,0.790,-0.665,-1.160,-173.706,-58.289
-0.351,0.719,-0.336,-9.583,-185.303,-53.650
-0.297,0.719,-0.050,-8.423,-176.941,-40.222
-0.176,0.779,0.048,-1.343,-148.193,-30.884
-0.120,0.925,-0.211,9.705,-109.741,-24.231
-0.111,0.937,-0.505,13.672,-86.609,-29.541
-0.101,0.838,-0.593,10.742,-87.341,-39.551
-0.074,0.719,-0.478,7.568,-96.436,-46.570
-0.012,0.675,-0.294,6.226,-100.403,-47.180
0.039,0.714,-0.182,6.287,-94.055,-44.556
0.064,0.723,-0.121,3.296,-83.252,-43.518
0.082,0.675,-0.088,-1.282,-70.618,-44.922
0.075,0.641,-0.150,-3.174,-54.321,-44.922
0.103,0.577,-0.339,-0.122,-37.048,-45.654

-0.289,0.643,-1.475,-46.814,-24.963,-55.542
-0.297,0.379,-1.503,-44.128,-40.039,-70.190
-0.313,0.211,-1.548,-38.147,-50.659,-73.303
-0.306,0.174,-1.573,-28.198,-64.453,-66.589
-0.302,0.202,-1.565,-18.433,-82.214,-58.472
-0.329,0.186,-1.592,-11.292,-96.985,-55.847
-0.349,0.142,-1.680,1.404,-105.774,-56.641
-0.316,0.118,-1.664,14.099,-122.620,-56.335
-0.262,0.096,-1.442,23.071,-151.855,-53.772
-0.227,0.026,-1.101,26.672,-180.298,-53.162
-0.160,0.040,-0.797,36.926,-185.913,-47.668
-0.080,0.043,-0.777,56.824,-162.415,-41.931
-0.041,0.000,-0.921,77.209,-143.738,-40.649
-0.055,0.015,-1.030,89.905,-139.771,-37.659
-0.095,0.093,-1.042,100.647,-148.010,-33.447
-0.093,0.044,-0.937,109.497,-160.889,-35.034
-0.071,-0.025,-0.788,116.211,-172.180,-35.522
-0.041,-0.044,-0.671,121.704,-177.795,-29.358
0.046,-0.048,-0.545,124.573,-182.312,-20.142
0.114,-0.009,-0.277,117.310,-189.880,-7.935
0.164,0.103,-0.063,110.718,-188.599,4.822
0.180,0.150,0.001,108.276,-171.692,12.512
0.184,0.113,-0.034,111.816,-151.855,16.113
0.216,0.118,-0.148,123.047,-133.728,21.851
0.262,0.124,-0.149,134.155,-126.038,27.344
0.327,0.190,-0.033,142.151,-126.404,33.386
0.386,0.233,0.171,149.048,-125.000,37.048
0.504,0.200,0.382,157.959,-117.615,37.537
0.522,0.194,0.549,158.081,-102.173,42.297
0.463,0.303,0.513,157.471,-75.745,53.345
0.477,0.486,0.331,153.198,-49.683,66.589
0.488,0.616,0.214,142.273,-38.086,72.693
0.504,0.676,0.242,127.747,-39.429,71.716
0.548,0.624,0.380,116.516,-42.175,67.139
0.543,0.573,0.490,108.765,-36.072,65.491
0.531,0.609,0.475,106.812,-18.311,70.374
0.509,0.649,0.385,107.117,0.061,75.073
0.501,0.729,0.273,105.103,13.611,80.078
0.499,0.816,0.248,97.351,18.127,84.717
0.489,0.869,0.283,89.294,18.555,84.961
0.467,0.928,0.316,83.557,22.888,83.984
0.495,1.004,0.340,80.139,30.029,82.886
0.506,1.078,0.370,75.256,36.743,81.726
0.493,1.137,0.409,66.528,43.335,79.529
0.466,1.133,0.442,60.303,52.246,74.097
0.435,1.124,0.467,56.458,62.622,69.885
0.397,1.197,0.476,52.307,73.853,69.275
0.329,1.306,0.452,49.194,84.717,68.359
0.281,1.346,0.377,47.668,94.910,61.951
0.280,1.379,0.304,45.410,101.379,54.199
0.271,1.404,0.316,36.255,102.112,48.340
0.235,1.369,0.363,22.827,102.051,43.396
0.196,1.344,0.306,10.803,108.337,40.710
0.188,1.366,0.204,0.977,115.967,40.039
0.174,1.382,0.142,-10.071,118.774,38.147
0.153,1.324,0.136,-22.583,120.972,32.837
0.137,1.293,0.155,-32.349,124.084,28.931
0.071,1.312,0.049,-38.269,134.094,25.879
0.009,1.318,-0.063,-43.762,144.226,19.836
-0.025,1.288,-0.087,-48.950,146.545,12.024
-0.070,1.216,-0.038,-55.908,146.606,3.540
-0.125,1.024,-0.117,-62.012,151.611,-2.075
-0.220,0.663,-0.487,-66.284,164.795,-5.859
-0.179,0.651,-0.872,-65.552,168.030,6.287
-0.085,0.931,-0.917,-66.345,144.470,26.917
-0.042,0.976,-0.594,-75.256,112.915,28.564
-0.004,0.781,-0.309,-81.238,101.929,20.447
0.019,0.685,-0.323,-79.712,117.676,21.973
0.022,0.748,-0.396,-80.322,134.521,31.189
0.019,0.698,-0.458,-80.933,143.433,34.851
-0.095,0.631,-0.406,-88.867,145.569,36.499
-0.236,0.702,-0.490,-91.919,151.672,42.542
-0.422,0.825,-0.764,-88.501,161.438,45.898
-0.449,0.722,-1.130,-80.688,164.368,39.185
-0.448,0.470,-1.329,-74.463,151.245,31.616
-0.356,0.431,-1.286,-74.036,118.652,40.283
-0.272,0.607,-1.077,-75.928,81.665,58.899
-0.198,0.617,-0.802,-82.275,56.885,64.575
-0.146,0.501,-0.624,-86.121,56.519,63.477
-0.102,0.376,-0.667,-81.421,70.801,66.040
-0.087,0.328,-0.724,-74.890,81.726,73.486
-0.232,0.469,-0.760,-68.115,85.938,84.473
-0.336,0.651,-0.873,-57.251,90.454,90.332
-0.459,0.666,-1.061,-44.067,93.201,84.351
-0.530,0.604,-1.316,-29.358,91.064,75.562
-0.510,0.542,-1.472,-14.832,80.078,72.083
-0.354,0.521,-1.316,-10.498,41.870,75.134
-0.265,0.527,-0.966,-16.296,0.244,82.886
-0.265,0.532,-0.563,-19.348,-15.076,88.562
-0.232,0.650,-0.417,-17.151,-4.456,96.741
-0.196,0.672,-0.435,-12.695,12.878,99.976
-0.228,0.657,-0.452,-14.709,24.719,99.365
-0.339,0.753,-0.464,-16.663,32.166,102.539
-0.556,0.899,-0.695,-13.794,44.128,103.577
-0.644,0.983,-1.205,-2.441,58.228,97.961
-0.640,0.882,-1.537,6.714,52.856,84.473
-0.585,0.729,-1.584,7.385,13.855,73.914
-0.566,0.731,-1.320,4.089,-36.926,75.073
-0.509,0.786,-1.016,1.770,-76.355,78.918
-0.494,0.748,-0.781,3.784,-88.196,77.026
-0.469,0.824,-0.673,5.981,-83.130,76.416
-0.434,0.982,-0.657,10.498,-77.881,76.599
-0.427,1.087,-0.665,14.038,-74.402,67.505
-0.515,1.143,-0.663,14.343,-73.853,52.795
-0.607,1.236,-0.813,19.592,-69.824,38.330
-0.602,1.253,-1.058,32.288,-67.200,20.020
-0.576,1.214,-1.202,41.504,-79.956,-0.793
-0.581,1.230,-1.168,41.199,-109.619,-15.808
-0.592,1.242,-1.035,34.119,-143.555,-28.259
-0.586,1.206,-0.892,29.114,-169.800,-41.809
-0.572,1.164,-0.720,24.109,-190.063,-53.772
-0.540,1.026,-0.445,18.250,-203.979,-61.157
-0.407,0.877,-0.064,6.653,-210.083,-61.829
-0.320,0.822,0.137,3.357,-190.857,-49.927
-0.296,0.855,0.021,11.047,-146.545,-35.034
-0.258,0.972,-0.313,25.391,-103.760,-22.705
-0.214,1.117,-0.647,34.485,-81.787,-18.799
-0.188,1.167,-0.802,31.921,-87.219,-26.978
-0.160,1.093,-0.741,19.470,-109.314,-42.664

-0.493,1.094,-1.209,1.404,19.592,127.197
-0.481,0.879,-1.247,6.714,6.775,99.670
-0.466,0.689,-1.230,12.146,-8.484,83.740
-0.434,0.652,-1.207,19.958,-23.193,82.214
-0.410,0.669,-1.147,21.973,-39.429,86.060
-0.446,0.614,-1.007,14.038,-57.983,89.966
-0.484,0.697,-0.873,3.906,-72.815,99.915
-0.512,0.869,-0.857,2.380,-75.806,109.497
-0.522,1.003,-0.902,6.592,-75.012,109.192
-0.536,1.096,-0.898,10.071,-79.407,100.769
-0.539,1.149,-0.843,12.817,-86.243,87.524
-0.478,1.156,-0.833,17.273,-90.027,71.045
-0.465,1.112,-0.948,24.963,-90.576,53.101
-0.447,1.089,-1.006,28.809,-98.572,36.560
-0.473,1.176,-1.006,29.907,-113.525,23.499
-0.508,1.344,-0.966,31.006,-130.371,8.911
-0.527,1.441,-0.904,30.762,-148.010,-12.024
-0.548,1.360,-0.871,28.503,-162.781,-40.344
-0.529,1.120,-0.804,22.766,-175.537,-67.078
-0.499,0.889,-0.635,10.437,-189.941,-79.834
-0.456,0.831,-0.375,-4.028,-200.562,-71.594
-0.368,0.934,-0.079,-14.343,-198.547,-52.734
-0.290,1.072,0.026,-12.329,-175.659,-39.001
-0.197,1.036,-0.087,-4.944,-137.695,-39.612
-0.150,0.921,-0.344,-2.686,-104.858,-46.082
-0.138,0.903,-0.612,-1.282,-86.182,-46.265
-0.110,0.980,-0.767,-1.526,-84.839,-44.250
-0.083,1.011,-0.713,-8.179,-98.389,-48.401
-0.037,0.942,-0.514,-18.494,-112.854,-58.411
0.001,0.741,-0.390,-23.682,-114.136,-70.313
0.032,0.536,-0.401,-21.484,-101.807,-74.463
0.076,0.435,-0.419,-17.761,-89.417,-65.918
0.091,0.574,-0.415,-14.893,-80.811,-48.340
0.089,0.768,-0.482,-9.155,-69.397,-37.476
0.105,0.770,-0.595,-4.456,-59.265,-43.518
0.159,0.594,-0.609,-5.310,-58.533,-53.833
0.225,0.384,-0.459,-12.268,-65.063,-57.007
0.215,0.271,-0.271,-18.677,-66.162,-49.377
0.224,0.350,-0.202,-17.639,-52.002,-32.349
0.239,0.539,-0.324,-8.118,-27.649,-16.968
0.260,0.610,-0.493,0.061,-10.193,-15.930
0.286,0.542,-0.552,0.916,-7.080,-23.315
0.304,0.405,-0.453,-1.221,-11.963,-28.931
0.260,0.302,-0.312,-3.540,-12.085,-27.405
0.213,0.359,-0.324,-0.122,0.305,-16.968
0.203,0.480,-0.479,7.690,18.494,-6.592
0.202,0.524,-0.660,13.672,29.053,-5.188
0.206,0.481,-0.745,13.367,27.100,-8.423
0.198,0.388,-0.693,7.996,17.273,-10.010
0.190,0.376,-0.632,3.662,11.719,-5.798
0.168,0.419,-0.640,4.150,15.015,-0.061
0.158,0.500,-0.677,7.629,18.982,4.761
0.149,0.566,-0.706,10.681,20.935,6.470
0.140,0.602,-0.725,12.695,21.179,5.249
0.142,0.612,-0.739,14.648,20.020,3.296
0.130,0.602,-0.770,13.367,19.348,2.014
0.114,0.561,-0.818,12.390,18.372,1.038
0.107,0.599,-0.875,13.672,16.418,3.967
0.118,0.680,-0.887,14.465,11.230,7.263
0.130,0.705,-0.831,11.597,3.174,6.531
0.139,0.690,-0.730,6.958,-2.930,4.700
0.146,0.672,-0.668,5.188,-3.479,4.578
0.148,0.689,-0.691,6.897,1.709,6.042
0.151,0.743,-0.749,10.071,6.897,7.507
0.150,0.794,-0.761,10.193,6.470,7.324
0.150,0.795,-0.726,7.446,3.845,4.395
0.154,0.736,-0.688,5.798,2.747,0.916
0.157,0.703,-0.674,6.470,5.066,-0.183
0.162,0.745,-0.673,7.751,8.240,2.075
0.159,0.759,-0.656,7.874,10.071,2.563
0.151,0.747,-0.694,6.104,12.390,1.343
0.139,0.728,-0.756,4.761,15.076,0.366
0.131,0.700,-0.813,2.625,13.916,0.549
0.123,0.689,-0.831,0.183,9.705,1.587
0.110,0.725,-0.805,-2.014,3.845,3.418
0.114,0.756,-0.788,-1.709,0.549,3.113
0.132,0.724,-0.781,-0.427,-0.427,0.000
0.150,0.651,-0.754,0.061,-1.770,-2.441
0.159,0.647,-0.694,-0.488,-2.991,-1.526
0.163,0.678,-0.635,-0.122,-2.136,0.854
0.175,0.685,-0.652,0.671,2.563,0.916
0.177,0.647,-0.700,1.587,7.446,-0.244
0.178,0.647,-0.698,0.122,7.629,0.916
0.169,0.709,-0.662,-0.610,6.775,3.967
0.145,0.726,-0.658,-0.305,8.118,3.235
0.127,0.707,-0.704,-0.061,11.108,1.465
0.123,0.713,-0.743,-0.854,11.230,1.648
0.141,0.747,-0.752,-1.038,8.545,2.136
0.145,0.706,-0.734,-1.648,5.249,-0.305
0.145,0.648,-0.683,-3.357,1.892,-2.258
0.146,0.660,-0.665,-2.686,2.380,-0.977
0.150,0.711,-0.679,-0.977,5.554,1.282
0.150,0.732,-0.677,-1.160,6.531,0.977
0.150,0.708,-0.642,-2.991,6.104,-0.916
0.153,0.684,-0.598,-5.432,6.897,-1.221
0.154,0.728,-0.593,-6.470,10.742,1.038
0.148,0.763,-0.632,-6.226,16.541,1.587
0.149,0.758,-0.669,-5.737,20.081,-0.671
0.158,0.740,-0.693,-7.935,21.240,-2.747
0.172,0.683,-0.686,-10.437,20.325,-4.578
0.179,0.614,-0.612,-14.160,18.372,-4.578
0.177,0.611,-0.546,-16.052,20.935,-2.014
0.171,0.672,-0.523,-15.015,27.832,1.892
0.161,0.694,-0.543,-13.550,36.621,2.380
0.148,0.660,-0.558,-13.123,43.701,-0.061
0.124,0.645,-0.563,-13.000,49.316,-0.793
0.089,0.649,-0.617,-11.536,56.213,-0.244
0.064,0.657,-0.752,-8.179,63.660,-0.732
0.012,0.666,-0.920,-4.089,66.833,-1.709
-0.016,0.663,-0.985,-3.296,59.387,-2.747
-0.048,0.682,-0.999,-3.113,48.157,-3.296
-0.053,0.714,-1.016,-0.732,39.124,-3.845
-0.033,0.714,-0.991,0.244,29.663,-5.493
-0.001,0.697,-0.920,-2.014,19.409,-7.202
0.020,0.638,-0.802,-7.019,11.292,-8.057
0.034,0.595,-0.664,-13.428,7.202,-5.432
0.044,0.614,-0.605,-15.198,13.062,-0.122
0.046,0.654,-0.690,-12.207,26.367,4.272
0.055,0.677,-0.818,-9.949,35.339,5.554

0.471,1.229,0.926,124.878,2.808,63.416
0.446,1.302,0.699,119.568,30.823,57.251
0.411,1.281,0.521,108.887,44.312,48.279
0.411,1.289,0.473,95.276,45.410,43.335
0.403,1.347,0.475,81.238,44.739,41.809
0.382,1.392,0.462,69.214,48.645,38.635
0.397,1.342,0.475,59.631,55.237,32.227
0.471,1.227,0.531,51.208,63.171,26.733
0.495,1.130,0.616,42.603,74.219,25.391
0.431,1.116,0.680,35.339,89.844,28.870
0.318,1.136,0.597,33.508,114.319,33.020
0.225,1.188,0.344,36.377,141.968,35.767
0.113,1.198,0.044,36.011,161.133,35.339
-0.017,1.212,-0.220,28.931,166.565,34.302
-0.133,1.287,-0.441,19.836,161.621,34.668
-0.191,1.327,-0.620,11.902,150.024,31.982
-0.148,1.294,-0.698,5.188,132.629,25.208
-0.081,1.278,-0.563,-5.737,108.337,19.836
-0.038,1.290,-0.302,-19.348,87.219,16.663
0.016,1.241,-0.130,-29.114,81.909,11.230
0.047,1.119,-0.127,-33.752,91.370,4.822
0.078,1.041,-0.150,-37.231,102.783,2.808
0.113,1.030,-0.115,-41.504,110.046,4.211
0.144,0.999,0.002,-47.791,115.540,3.906
0.133,0.970,0.118,-56.030,123.779,3.052
0.078,0.937,0.102,-63.477,139.832,2.808
-0.126,0.926,-0.152,-67.261,162.415,1.526
-0.277,0.889,-0.519,-65.613,179.626,-1.404
-0.350,0.801,-0.925,-58.228,185.852,-4.028
-0.363,0.703,-1.169,-58.411,169.983,-4.456
-0.313,0.702,-1.217,-63.843,140.625,0.427
-0.223,0.799,-1.007,-71.960,106.384,7.935
-0.146,0.810,-0.623,-84.839,77.393,10.864
-0.094,0.616,-0.347,-93.872,72.449,7.935
-0.061,0.572,-0.282,-95.520,89.294,14.282
-0.044,0.640,-0.307,-96.558,109.070,25.391
-0.092,0.672,-0.391,-99.792,124.268,30.029
-0.143,0.630,-0.541,-97.961,137.756,28.503
-0.236,0.560,-0.700,-96.436,144.409,27.039
-0.389,0.497,-0.913,-93.140,146.179,27.832
-0.493,0.493,-1.238,-80.139,147.339,31.433
-0.503,0.457,-1.519,-60.791,145.996,35.095
-0.389,0.364,-1.651,-49.133,117.981,39.490
-0.294,0.394,-1.410,-55.054,66.101,52.612
-0.196,0.388,-1.012,-69.153,13.855,66.345
-0.167,0.347,-0.562,-78.735,-2.380,74.219
-0.161,0.360,-0.440,-75.989,14.648,83.679
-0.144,0.410,-0.505,-64.575,39.795,92.590
-0.149,0.479,-0.581,-51.270,57.495,96.741
-0.259,0.562,-0.655,-43.152,67.383,97.839
-0.482,0.685,-0.901,-31.677,79.041,96.313
-0.575,0.750,-1.353,-12.817,92.651,92.651
-0.499,0.581,-1.653,1.526,90.088,82.764
-0.399,0.351,-1.644,1.953,48.096,78.857
-0.403,0.401,-1.331,-8.606,-8.118,92.957
-0.416,0.618,-1.040,-12.390,-46.326,111.328
-0.421,0.747,-0.921,-7.568,-51.331,115.356
-0.401,0.768,-0.912,-3.723,-49.255,110.474
-0.439,0.849,-0.877,-3.723,-54.443,107.422
-0.517,1.046,-0.859,-0.061,-59.875,104.736
-0.538,1.194,-0.965,11.475,-58.716,93.811
-0.491,1.110,-1.138,22.766,-60.242,72.510
-0.439,0.819,-1.206,26.550,-74.463,52.490
-0.418,0.721,-1.084,21.545,-99.976,49.866
-0.442,1.000,-0.885,17.761,-123.047,61.462
-0.461,1.292,-0.746,18.616,-135.254,61.646
-0.474,1.343,-0.881,24.536,-133.850,41.931
-0.531,1.213,-1.161,30.212,-134.644,15.625
-0.566,1.057,-1.123,24.841,-158.142,-1.831
-0.526,1.056,-0.779,14.893,-193.604,-5.676
-0.461,1.156,-0.463,9.949,-211.060,-5.127
-0.411,1.191,-0.294,10.986,-206.360,-10.559
-0.382,1.180,-0.224,10.620,-193.481,-20.081
-0.344,1.215,-0.328,14.099,-174.561,-27.161
-0.325,1.231,-0.498,19.165,-159.241,-36.316
-0.273,1.230,-0.475,16.602,-160.217,-47.424
-0.193,1.200,-0.257,7.446,-169.678,-58.350
-0.109,1.037,-0.117,-0.244,-168.152,-70.740
-0.087,0.790,-0.142,-5.676,-151.428,-79.956
-0.056,0.720,-0.243,-7.202,-132.812,-74.341
-0.004,0.863,-0.281,-7.141,-122.131,-59.753
0.037,1.002,-0.287,-9.338,-116.272,-54.199
0.069,0.943,-0.325,-13.855,-109.314,-62.805
0.092,0.759,-0.396,-19.104,-102.600,-74.463
0.113,0.621,-0.439,-22.095,-97.961,-78.186
0.138,0.576,-0.372,-22.522,-97.351,-72.510
0.188,0.555,-0.186,-25.452,-96.741,-64.392
0.267,0.533,-0.057,-26.978,-85.999,-56.580
0.284,0.429,-0.127,-25.208,-61.523,-51.514
0.275,0.385,-0.333,-22.217,-36.011,-44.189
0.262,0.507,-0.507,-18.555,-22.034,-32.471
0.265,0.617,-0.556,-16.296,-20.081,-27.161
0.283,0.550,-0.493,-15.503,-22.888,-31.982
0.307,0.375,-0.416,-14.771,-21.179,-36.621
0.330,0.281,-0.391,-13.245,-12.817,-31.677
0.340,0.323,-0.387,-10.498,-2.869,-19.470
0.341,0.431,-0.411,-7.996,6.714,-7.996
0.329,0.439,-0.439,-7.507,15.320,-4.333
0.314,0.412,-0.475,-6.653,22.644,-2.747
0.267,0.407,-0.545,-4.578,29.602,0.427
0.205,0.461,-0.658,-0.916,36.499,5.737
0.154,0.569,-0.794,4.761,40.771,10.437
0.137,0.646,-0.904,8.789,38.940,10.986
0.154,0.648,-0.933,9.644,29.785,7.385
0.169,0.638,-0.859,6.775,17.273,4.578
0.181,0.634,-0.745,2.991,7.751,4.028
0.179,0.614,-0.699,2.319,6.592,4.150
0.171,0.622,-0.723,4.272,10.925,5.676
0.168,0.687,-0.771,6.836,14.709,8.423
0.171,0.725,-0.779,7.202,14.709,8.972
0.174,0.708,-0.737,4.517,12.390,7.385
0.180,0.687,-0.694,1.587,12.085,7.507
0.121,0.672,-0.707,-1.038,14.954,9.277
0.140,0.731,-0.760,0.000,19.653,13.062
0.142,0.809,-0.874,4.211,23.682,15.015
0.165,0.833,-0.912,3.967,19.775,11.047
0.183,0.780,-0.851,-0.061,9.155,4.517
0.189,0.673,-0.744,-4.089,1.343,-0.183
0.182,0.636,-0.703,-4.639,1.343,0.916

-0.485,0.753,-1.338,8.484,17.761,89.539
-0.424,0.659,-1.384,16.907,-0.061,78.674
-0.358,0.677,-1.236,19.958,-30.029,77.698
-0.361,0.722,-1.023,18.921,-56.274,78.003
-0.333,0.743,-0.846,19.104,-70.496,76.599
-0.332,0.766,-0.786,20.630,-69.153,74.585
-0.367,0.867,-0.914,23.071,-63.110,73.120
-0.421,1.020,-1.163,28.809,-61.096,68.176
-0.436,1.133,-1.351,38.025,-69.214,53.162
-0.426,1.192,-1.422,49.805,-89.233,30.273
-0.427,1.216,-1.334,58.411,-119.446,5.066
-0.418,1.227,-1.151,60.974,-150.208,-17.944
-0.429,1.177,-0.974,56.091,-175.293,-39.124
-0.434,0.967,-0.734,43.701,-196.228,-55.115
-0.408,0.576,-0.254,21.423,-209.839,-58.594
-0.294,0.590,0.231,3.052,-204.224,-29.785
-0.215,1.004,0.336,5.310,-160.095,10.498
-0.216,1.347,-0.029,15.808,-99.915,23.987
-0.230,1.324,-0.556,23.560,-56.641,7.202
-0.199,1.094,-0.836,22.400,-50.964,-15.198
-0.129,0.855,-0.697,10.986,-74.280,-27.039
-0.091,0.740,-0.385,-0.549,-95.581,-25.757
-0.103,0.763,-0.217,-3.723,-92.957,-18.188
-0.070,0.876,-0.272,1.831,-73.608,-11.414
-0.032,0.831,-0.427,6.531,-56.274,-14.526
0.004,0.726,-0.404,2.441,-53.528,-19.470
0.047,0.688,-0.230,-4.883,-56.458,-17.334
0.058,0.662,-0.052,-10.498,-50.415,-13.916
0.095,0.684,-0.041,-8.728,-30.640,-10.498
0.102,0.696,-0.208,-2.197,-5.432,-9.949
0.105,0.682,-0.371,1.404,9.460,-11.963
0.084,0.640,-0.446,-0.366,12.634,-14.343
0.044,0.593,-0.487,-2.747,11.536,-15.198
0.013,0.561,-0.535,-2.197,12.634,-14.282
0.016,0.563,-0.595,-0.305,14.099,-11.719
0.016,0.566,-0.637,0.793,13.428,-9.766
0.012,0.596,-0.630,1.404,10.498,-7.629
0.023,0.617,-0.592,2.563,8.057,-6.775
0.019,0.587,-0.567,3.479,8.972,-7.935
0.013,0.600,-0.593,5.066,12.451,-6.714
0.012,0.625,-0.656,5.859,15.747,-4.089
0.001,0.603,-0.713,4.761,16.541,-3.418
-0.001,0.641,-0.731,3.662,14.038,-1.526
-0.005,0.700,-0.710,3.967,10.742,-0.122
-0.006,0.651,-0.699,4.944,9.949,-2.319
-0.016,0.545,-0.735,5.920,12.390,-3.845
-0.039,0.615,-0.819,7.935,14.587,1.587
-0.034,0.755,-0.843,10.071,11.597,7.141
-0.028,0.777,-0.767,9.094,4.333,4.578
-0.024,0.693,-0.674,7.568,0.183,-0.671
-0.024,0.680,-0.662,8.118,2.197,-0.671
-0.032,0.726,-0.729,10.254,7.080,2.502
-0.030,0.752,-0.761,9.766,6.836,3.784
-0.036,0.766,-0.711,7.568,2.014,3.967
-0.052,0.775,-0.669,5.981,0.122,3.479
-0.052,0.798,-0.715,6.653,3.052,2.991
-0.042,0.793,-0.765,7.324,4.517,1.038
-0.024,0.761,-0.735,6.165,1.343,-1.099
-0.004,0.733,-0.658,3.906,-2.136,-1.343
-0.005,0.706,-0.620,2.869,-0.732,-0.488
-0.004,0.747,-0.651,2.991,3.662,2.441
-0.011,0.763,-0.712,2.686,6.958,3.601
-0.005,0.753,-0.717,0.793,6.592,2.808
-0.009,0.763,-0.683,-1.709,3.723,3.479
-0.030,0.770,-0.688,-3.235,3.906,3.235
-0.041,0.767,-0.750,-2.136,6.592,2.441
-0.055,0.750,-0.810,-0.183,6.836,1.465
-0.056,0.749,-0.807,0.244,3.357,0.732
-0.051,0.751,-0.754,-0.183,-1.038,0.305
-0.036,0.755,-0.711,0.244,-2.808,0.122
-0.017,0.739,-0.700,0.916,-1.831,-0.305
-0.021,0.718,-0.704,0.122,-0.916,-0.366
-0.032,0.766,-0.724,-0.305,-0.671,1.709
-0.026,0.792,-0.741,0.183,-1.282,1.770
-0.010,0.755,-0.704,-1.343,-3.540,-0.854
-0.002,0.743,-0.633,-3.601,-5.798,-1.465
-0.003,0.742,-0.610,-3.540,-4.028,-0.977
-0.010,0.728,-0.650,-2.136,0.488,-1.465
-0.018,0.732,-0.696,-0.305,3.418,-1.648
-0.019,0.720,-0.669,0.305,2.625,-1.770
-0.013,0.733,-0.625,-0.122,1.465,-1.160
-0.017,0.743,-0.631,-0.061,3.357,-0.061
-0.013,0.731,-0.686,-0.183,5.981,-0.122
-0.025,0.771,-0.734,-1.099,5.371,0.977
-0.021,0.819,-0.725,-1.953,1.099,0.793
-0.015,0.769,-0.678,-2.869,-2.563,-2.625
-0.013,0.708,-0.641,-3.540,-3.174,-4.883
-0.023,0.733,-0.642,-3.601,-1.526,-3.174
-0.031,0.753,-0.673,-3.174,1.282,-2.136
-0.023,0.721,-0.684,-3.235,2.319,-2.930
-0.027,0.717,-0.671,-4.456,1.709,-2.441
-0.044,0.739,-0.678,-5.005,2.319,-1.404
-0.052,0.755,-0.702,-4.089,4.028,-1.648
-0.034,0.750,-0.743,-2.441,4.700,-2.563
-0.026,0.726,-0.726,-3.235,2.075,-3.601
-0.027,0.743,-0.684,-5.005,-1.404,-3.418
-0.036,0.771,-0.690,-4.517,-1.099,-3.357
-0.032,0.761,-0.718,-2.869,0.244,-5.188
-0.022,0.689,-0.728,-2.991,0.000,-7.629
-0.023,0.650,-0.704,-4.333,-1.343,-6.897
-0.037,0.747,-0.677,-4.517,-1.160,-2.441
-0.067,0.803,-0.693,-2.747,1.648,-2.197
-0.084,0.774,-0.749,0.732,5.920,-6.653
-0.087,0.750,-0.788,3.967,6.958,-9.949
-0.105,0.779,-0.782,5.005,4.639,-10.315
-0.122,0.839,-0.778,5.798,2.380,-10.010
-0.117,0.839,-0.793,5.859,1.099,-12.146
-0.076,0.760,-0.787,3.845,-1.770,-14.587
-0.058,0.744,-0.725,-0.305,-6.409,-12.329
-0.063,0.854,-0.643,-3.418,-9.338,-6.897
-0.029,0.880,-0.622,-3.784,-7.202,-7.812
-0.006,0.761,-0.671,-3.723,-2.075,-14.160
0.022,0.683,-0.693,-6.042,-1.282,-15.381
0.037,0.703,-0.654,-8.545,-3.296,-11.536
0.048,0.714,-0.615,-9.460,-3.418,-9.827
0.065,0.665,-0.612,-9.155,-0.732,-11.169
0.076,0.657,-0.598,-9.277,2.014,-10.620
0.083,0.695,-0.583,-10.437,4.517,-8.057
0.084,0.718,-0.591,-11.353,7.812,-7.568

-0.265,0.923,-1.518,-38.330,6.287,-53.467
-0.247,0.769,-1.546,-39.124,-14.648,-66.528
-0.204,0.641,-1.483,-40.283,-41.687,-73.303
-0.223,0.600,-1.365,-42.419,-63.599,-73.853
-0.277,0.600,-1.298,-40.649,-78.552,-73.059
-0.322,0.576,-1.358,-34.058,-81.482,-74.890
-0.282,0.442,-1.506,-22.339,-81.970,-79.468
-0.265,0.189,-1.568,-15.015,-90.820,-85.083
-0.260,0.100,-1.541,-8.484,-108.826,-78.064
-0.242,0.251,-1.402,2.930,-130.249,-59.570
-0.195,0.379,-1.239,14.160,-147.034,-50.171
-0.163,0.253,-1.153,25.330,-154.541,-57.007
-0.108,0.049,-1.082,33.630,-157.715,-63.599
-0.030,-0.089,-0.968,41.504,-166.138,-59.021
0.021,-0.126,-0.790,48.157,-171.387,-45.654
0.073,-0.087,-0.644,58.655,-168.152,-29.297
0.146,-0.051,-0.564,72.388,-161.499,-19.043
0.216,-0.113,-0.502,85.815,-155.273,-15.564
0.263,-0.245,-0.394,95.764,-152.954,-13.794
0.282,-0.240,-0.128,103.394,-153.015,-6.714
0.358,-0.151,0.120,118.896,-143.738,9.338
0.391,-0.101,0.199,141.846,-117.310,20.325
0.412,-0.111,0.118,164.795,-87.830,24.231
0.371,-0.058,0.001,172.791,-69.580,32.776
0.342,0.156,0.001,164.429,-68.542,49.072
0.310,0.341,0.096,152.832,-74.951,62.134
0.294,0.360,0.203,146.729,-77.454,63.354
0.302,0.302,0.402,143.005,-75.317,57.434
0.357,0.378,0.557,146.362,-65.796,64.880
0.409,0.523,0.651,153.625,-47.058,72.510
0.437,0.656,0.660,164.185,-23.682,73.730
0.483,0.615,0.664,172.913,-2.563,66.956
0.499,0.527,0.689,173.401,13.367,62.195
0.383,0.611,0.639,165.405,27.832,72.083
0.251,0.826,0.454,150.452,41.992,88.135
0.212,1.133,0.256,127.258,46.631,104.980
0.235,1.352,0.200,104.065,36.926,103.516
0.280,1.291,0.343,85.449,23.010,85.938
0.324,1.187,0.542,76.050,17.639,71.716
0.341,1.204,0.654,73.425,26.672,68.787
0.356,1.301,0.703,69.580,42.847,69.153
0.375,1.363,0.741,63.110,59.875,66.406
0.381,1.399,0.770,51.575,76.111,61.340
0.320,1.398,0.762,36.926,93.262,55.908
0.181,1.427,0.616,24.231,114.258,50.842
0.075,1.469,0.320,17.517,135.620,46.387
0.031,1.475,0.050,10.803,145.813,39.001
0.021,1.496,-0.029,-1.892,138.550,32.043
-0.008,1.549,0.109,-19.104,123.535,25.696
-0.068,1.594,0.207,-34.973,118.835,16.907
-0.090,1.590,0.104,-45.166,128.662,4.028
-0.100,1.476,-0.091,-53.772,139.771,-11.108
-0.089,1.273,-0.219,-65.491,142.456,-25.269
-0.068,1.077,-0.275,-78.979,138.733,-32.227
-0.035,0.896,-0.260,-90.027,135.498,-32.654
-0.004,0.706,-0.239,-99.792,137.817,-27.405
-0.010,0.548,-0.251,-106.628,146.851,-17.578
-0.061,0.541,-0.312,-110.046,158.936,-1.770
-0.171,0.601,-0.428,-112.183,171.753,13.123
-0.264,0.577,-0.720,-109.619,185.486,20.630
-0.375,0.533,-1.060,-101.868,192.505,24.231
-0.430,0.626,-1.336,-95.276,184.143,32.043
-0.430,0.657,-1.516,-88.074,166.931,35.828
-0.329,0.607,-1.560,-82.886,134.399,34.180
-0.247,0.562,-1.331,-81.482,95.215,35.217
-0.158,0.521,-0.999,-83.984,59.448,39.490
-0.112,0.538,-0.686,-83.496,52.612,45.776
-0.062,0.566,-0.571,-82.031,65.552,52.063
-0.031,0.554,-0.531,-82.153,79.712,56.396
-0.039,0.530,-0.494,-84.961,90.820,59.143
-0.062,0.467,-0.459,-83.496,103.027,60.913
-0.092,0.375,-0.450,-80.872,114.807,63.721
-0.350,0.418,-0.660,-71.899,130.310,70.068
-0.558,0.669,-1.153,-51.819,148.376,80.078
-0.563,0.792,-1.598,-30.518,153.992,79.468
-0.448,0.600,-1.797,-20.081,124.268,65.430
-0.296,0.325,-1.549,-21.912,62.622,59.875
-0.194,0.208,-1.071,-31.006,0.977,73.486
-0.200,0.278,-0.575,-39.368,-16.052,94.849
-0.221,0.412,-0.490,-39.063,5.188,113.770
-0.233,0.544,-0.597,-33.325,29.297,124.146
-0.235,0.717,-0.586,-29.968,41.321,127.686
-0.270,0.840,-0.479,-25.513,47.180,121.887
-0.568,0.942,-0.495,-18.982,59.204,109.802
-0.780,1.113,-1.021,-1.831,85.327,98.816
-0.730,0.981,-1.729,24.475,110.352,79.346
-0.653,0.514,-2.114,31.372,88.135,54.077
-0.612,0.334,-2.014,24.658,6.836,58.655
-0.652,0.479,-1.589,12.329,-77.087,84.351
-0.689,0.639,-1.143,3.174,-127.563,101.196
-0.668,0.707,-0.878,-0.732,-136.292,107.666
-0.641,0.776,-0.727,-0.732,-129.700,110.718
-0.594,0.995,-0.536,0.183,-126.892,114.380
-0.580,1.281,-0.387,5.737,-119.385,110.535
-0.573,1.364,-0.408,15.442,-100.037,88.928
-0.553,1.136,-0.676,26.245,-75.989,58.167
-0.550,0.877,-0.999,32.898,-64.758,37.537
-0.582,0.891,-1.181,32.776,-76.477,36.438
-0.652,1.035,-1.231,31.311,-100.464,37.598
-0.630,1.174,-1.235,33.813,-126.709,30.151
-0.609,1.196,-1.063,36.316,-154.480,14.343
-0.544,1.223,-0.709,31.494,-185.547,-1.770
-0.510,1.305,-0.401,28.748,-198.669,-16.541
-0.498,1.181,-0.230,31.128,-191.467,-36.743
-0.420,0.887,-0.072,30.029,-177.063,-54.688
-0.350,0.887,-0.072,28.625,-154.724,-50.049
-0.365,1.057,-0.303,29.785,-126.526,-38.513
-0.335,1.203,-0.514,28.503,-112.366,-38.757
-0.291,1.236,-0.507,21.790,-117.065,-49.133
-0.254,1.137,-0.372,12.573,-125.305,-64.880
-0.198,0.977,-0.315,7.019,-124.207,-78.308
-0.151,0.834,-0.370,4.333,-116.211,-85.083
-0.110,0.788,-0.440,3.113,-110.107,-84.595
-0.082,0.737,-0.418,1.831,-108.948,-82.886
0.030,0.571,-0.194,-4.333,-112.610,-81.116
0.204,0.349,0.063,-11.780,-109.985,-72.998
0.198,0.281,0.166,-17.944,-88.440,-54.260
0.170,0.579,0.021,-17.700,-54.688,-25.940
0.149,0.805,-0.300,-12.146,-23.376,-12.939

-0.477,0.844,-1.114,23.926,-16.418,71.899
-0.482,0.832,-0.977,22.583,-39.856,69.702
-0.492,0.938,-0.863,22.034,-55.847,71.716
-0.457,1.045,-0.786,22.156,-64.514,71.533
-0.422,1.114,-0.648,16.296,-74.280,67.688
-0.422,1.201,-0.556,8.484,-79.956,62.561
-0.399,1.213,-0.579,6.531,-76.782,52.368
-0.381,1.196,-0.673,6.836,-73.486,39.307
-0.427,1.226,-0.707,5.005,-78.125,29.175
-0.483,1.332,-0.738,4.456,-85.571,19.836
-0.514,1.364,-0.836,8.362,-90.210,5.066
-0.461,1.170,-0.836,9.460,-101.379,-13.855
-0.434,0.991,-0.697,2.502,-120.117,-23.804
-0.440,1.055,-0.527,-5.127,-133.789,-19.287
-0.448,1.259,-0.492,-4.700,-134.277,-14.221
-0.376,1.100,-0.345,-4.333,-132.385,-24.414
-0.250,0.884,-0.144,-9.827,-132.080,-31.799
-0.242,0.898,-0.177,-13.611,-115.723,-22.339
-0.267,1.049,-0.439,-9.277,-91.797,-12.939
-0.263,1.126,-0.657,-2.563,-81.726,-15.625
-0.242,1.073,-0.697,-2.075,-89.417,-26.917
-0.245,1.019,-0.652,-5.676,-101.868,-36.804
-0.224,0.996,-0.606,-6.775,-110.840,-43.396
-0.211,0.975,-0.572,-5.249,-116.577,-50.049
-0.184,0.877,-0.350,-7.385,-125.000,-55.725
-0.133,0.826,-0.081,-14.465,-129.272,-55.481
-0.092,0.766,-0.012,-14.404,-113.281,-51.025
-0.048,0.661,-0.173,-12.634,-87.585,-47.302
-0.033,0.665,-0.405,-10.315,-69.092,-40.283
-0.022,0.740,-0.471,-9.888,-67.322,-33.264
-0.020,0.725,-0.311,-12.573,-75.378,-32.898
0.048,0.655,-0.220,-11.169,-73.364,-34.180
0.089,0.467,-0.203,-9.705,-62.195,-34.790
0.132,0.438,-0.133,-12.024,-53.406,-26.550
0.135,0.603,-0.137,-9.949,-40.283,-12.329
0.147,0.634,-0.212,-5.005,-24.048,-9.949
0.151,0.570,-0.316,-0.122,-10.803,-13.550
0.170,0.500,-0.335,2.319,-4.944,-14.099
0.165,0.489,-0.324,3.418,-1.404,-10.925
0.172,0.489,-0.343,5.310,5.188,-6.592
0.145,0.489,-0.389,6.042,12.512,-3.479
0.123,0.528,-0.470,6.836,19.653,-0.305
0.102,0.550,-0.542,8.728,23.743,1.831
0.076,0.563,-0.586,10.010,24.353,2.991
0.054,0.578,-0.608,10.315,22.827,4.578
0.029,0.615,-0.594,9.888,20.813,6.653
0.015,0.672,-0.602,11.292,20.813,8.911
-0.001,0.686,-0.638,12.207,22.095,8.911
-0.015,0.693,-0.672,13.306,22.034,9.155
-0.017,0.737,-0.668,12.939,19.226,10.376
-0.013,0.775,-0.658,12.146,16.968,11.230
-0.026,0.798,-0.657,11.353,16.113,10.376
-0.029,0.817,-0.685,10.925,16.296,9.399
-0.022,0.829,-0.697,10.559,15.747,8.606
-0.029,0.835,-0.672,9.460,13.184,7.935
-0.033,0.875,-0.670,8.728,12.390,8.301
-0.040,0.877,-0.705,8.240,13.428,7.446
-0.045,0.845,-0.753,8.423,13.916,5.249
-0.046,0.840,-0.773,7.935,11.230,5.005
-0.036,0.895,-0.748,6.287,6.348,7.202
-0.040,0.937,-0.709,4.395,2.197,7.202
-0.031,0.908,-0.701,4.272,1.343,3.784
-0.026,0.854,-0.704,4.089,0.793,0.916
-0.019,0.884,-0.690,2.930,-1.038,1.648
-0.012,0.907,-0.641,1.953,-3.235,2.136
-0.004,0.839,-0.603,0.366,-3.113,-0.366
0.001,0.819,-0.614,-0.854,-1.038,-0.122
0.000,0.868,-0.636,-0.854,0.732,2.441
-0.005,0.849,-0.631,0.244,1.282,1.221
-0.007,0.796,-0.632,1.343,1.587,-0.732
0.005,0.822,-0.651,-0.244,2.747,1.099
0.007,0.848,-0.646,-1.526,1.099,1.892
-0.002,0.858,-0.616,-2.258,-0.610,0.488
-0.007,0.825,-0.597,-1.709,-1.282,-1.831
-0.006,0.803,-0.610,-1.343,-0.793,-2.808
-0.003,0.808,-0.608,-1.770,-1.526,-2.563
-0.003,0.812,-0.549,-2.625,-3.479,-2.380
-0.007,0.817,-0.492,-3.113,-3.601,-2.441
0.009,0.802,-0.486,-0.488,0.183,-2.808
0.007,0.778,-0.574,0.916,6.226,-3.113
0.013,0.812,-0.610,-0.610,7.202,-2.014
0.013,0.813,-0.561,-3.479,3.174,-1.648
0.013,0.756,-0.520,-4.700,1.953,-2.563
0.008,0.737,-0.584,-4.211,6.226,-2.136
0.005,0.760,-0.669,-2.747,9.521,-1.038
-0.001,0.775,-0.665,-2.075,6.409,-1.099
-0.008,0.745,-0.615,-2.136,2.258,-2.380
-0.005,0.740,-0.611,-0.183,2.686,-2.502
-0.004,0.762,-0.659,2.747,5.310,-2.075
-0.002,0.766,-0.680,4.578,5.066,-2.563
0.009,0.759,-0.622,3.906,0.916,-2.930
0.011,0.768,-0.534,1.526,-1.892,-2.136
0.012,0.761,-0.511,-0.244,0.000,-1.160
0.017,0.742,-0.542,-0.977,4.395,-0.305
0.024,0.766,-0.562,-0.366,6.897,1.770
0.010,0.789,-0.586,-0.793,7.751,2.563
-0.005,0.792,-0.636,-1.038,9.338,0.916
-0.010,0.770,-0.688,0.732,9.155,-0.977
-0.003,0.741,-0.694,1.465,5.920,-1.953
0.002,0.747,-0.648,0.977,1.709,-1.465
0.002,0.779,-0.599,0.549,-0.183,-0.183
0.001,0.786,-0.594,0.366,1.160,0.122
0.002,0.795,-0.610,-0.244,2.991,0.000
-0.007,0.801,-0.620,-1.526,3.601,0.305
-0.015,0.780,-0.633,-2.563,3.906,-0.244
-0.029,0.761,-0.654,-2.625,4.395,-0.427
-0.037,0.786,-0.670,-2.563,4.456,0.977
-0.044,0.797,-0.677,-2.319,3.723,1.099
-0.037,0.778,-0.687,-1.343,2.319,-0.122
-0.034,0.778,-0.669,-0.061,0.916,-0.549
-0.023,0.811,-0.639,1.404,-0.366,-0.305
-0.015,0.804,-0.621,2.441,-0.305,-1.404
0.000,0.777,-0.622,2.258,0.183,-2.136
0.001,0.777,-0.605,0.793,-0.610,-1.587
0.002,0.803,-0.579,-0.977,-1.831,-0.183
0.010,0.796,-0.570,-2.258,-1.221,-0.061
0.014,0.773,-0.572,-3.052,-0.244,-0.549
-0.002,0.760,-0.579,-3.601,1.160,-0.122
-0.008,0.781,-0.617,-2.747,3.113,0.977

-0.335,0.600,-1.601,-39.246,-46.387,-26.306
-0.336,0.667,-1.505,-32.227,-67.017,-31.189
-0.313,0.745,-1.400,-24.719,-83.984,-38.391
-0.292,0.836,-1.290,-18.250,-98.083,-48.706
-0.312,0.883,-1.223,-12.939,-110.352,-62.622
-0.328,0.818,-1.185,-10.071,-119.690,-80.261
-0.349,0.726,-1.173,-9.583,-128.174,-95.276
-0.329,0.629,-1.159,-7.996,-138.062,-104.858
-0.281,0.512,-1.103,-6.470,-151.550,-111.450
-0.212,0.340,-1.031,-5.432,-166.016,-115.601
-0.151,0.095,-0.903,-3.540,-178.223,-116.577
-0.068,-0.043,-0.678,-1.770,-186.401,-105.164
0.018,-0.112,-0.487,5.310,-184.021,-84.106
0.073,-0.184,-0.408,14.648,-171.021,-64.087
0.120,-0.181,-0.473,28.320,-150.574,-41.321
0.172,-0.134,-0.565,41.504,-136.169,-19.958
0.215,-0.064,-0.541,50.964,-134.644,-5.432
0.237,-0.081,-0.353,57.068,-137.817,2.075
0.291,-0.122,-0.183,67.322,-133.545,8.789
0.327,-0.198,-0.110,81.909,-118.530,17.151
0.318,-0.232,-0.077,95.642,-100.037,29.236
0.318,-0.069,-0.087,111.877,-84.106,48.645
0.331,0.169,-0.096,127.197,-70.862,66.406
0.361,0.223,-0.079,134.644,-63.477,68.542
0.348,0.208,0.045,132.568,-62.500,67.017
0.372,0.368,0.233,127.014,-62.134,76.782
0.394,0.612,0.335,125.488,-51.514,86.182
0.376,0.671,0.286,122.864,-31.616,79.651
0.368,0.614,0.144,122.742,-12.878,67.871
0.371,0.589,0.073,124.390,-4.700,62.744
0.362,0.610,0.129,125.549,-4.211,62.988
0.371,0.710,0.257,124.390,-4.272,67.078
0.386,0.866,0.381,119.141,-0.305,72.937
0.384,1.027,0.442,109.863,9.155,74.341
0.354,1.080,0.379,101.501,24.292,67.566
0.331,0.944,0.246,96.558,40.222,56.274
0.297,0.924,0.131,91.553,50.049,53.711
0.285,1.139,0.074,85.449,53.162,61.829
0.263,1.267,0.033,79.285,54.688,60.669
0.255,1.208,0.015,72.266,57.007,48.828
0.267,1.174,0.083,64.758,57.678,41.443
0.266,1.258,0.182,56.580,59.570,41.870
0.257,1.320,0.224,49.316,67.810,40.039
0.222,1.286,0.219,42.969,79.285,32.959
0.178,1.303,0.154,36.987,90.088,28.748
0.131,1.361,0.041,29.419,98.450,26.306
0.108,1.349,-0.067,20.325,102.234,20.874
0.060,1.225,-0.154,9.460,101.746,13.123
0.014,1.139,-0.283,0.183,101.746,10.559
0.003,1.193,-0.427,-6.409,101.196,13.733
-0.003,1.214,-0.495,-12.878,95.703,13.306
0.002,1.145,-0.508,-18.188,88.196,8.362
0.021,1.046,-0.516,-20.935,83.557,4.272
0.046,0.993,-0.511,-21.851,80.933,3.906
0.084,1.059,-0.417,-23.560,76.355,7.202
0.133,1.046,-0.261,-26.306,73.242,7.141
0.157,0.967,-0.121,-30.762,76.599,4.089
0.141,0.999,-0.094,-34.058,88.135,7.141
0.093,0.996,-0.197,-37.354,104.492,8.423
-0.018,0.972,-0.347,-41.077,117.188,7.324
-0.126,0.953,-0.612,-42.786,126.709,6.470
-0.198,0.878,-0.916,-40.649,131.104,3.418
-0.222,0.845,-1.095,-39.307,120.850,1.770
-0.170,0.838,-1.059,-40.161,97.046,2.625
-0.129,0.802,-0.844,-45.349,71.350,2.136
-0.089,0.822,-0.620,-48.523,56.091,2.991
-0.044,0.859,-0.446,-48.401,53.650,4.761
0.003,0.874,-0.364,-49.377,59.204,4.395
0.028,0.813,-0.369,-55.420,68.054,3.540
0.042,0.688,-0.357,-65.613,74.402,4.150
0.035,0.638,-0.351,-73.425,80.322,9.460
0.029,0.641,-0.361,-77.515,87.769,17.090
-0.008,0.591,-0.437,-80.200,96.619,20.569
-0.086,0.533,-0.588,-84.351,104.858,23.865
-0.185,0.476,-0.822,-85.876,110.168,28.625
-0.261,0.403,-1.043,-83.374,108.826,33.081
-0.271,0.362,-1.173,-75.317,98.816,39.001
-0.236,0.443,-1.171,-67.505,81.543,47.913
-0.199,0.542,-1.069,-63.049,63.660,54.260
-0.158,0.517,-0.953,-60.059,51.270,53.650
-0.132,0.429,-0.859,-59.143,44.861,52.795
-0.133,0.398,-0.865,-56.396,45.654,57.922
-0.161,0.372,-0.981,-49.561,49.561,65.063
-0.238,0.481,-1.102,-43.274,48.096,74.097
-0.247,0.636,-1.173,-35.583,39.856,81.482
-0.246,0.638,-1.108,-29.480,25.208,77.026
-0.249,0.642,-0.971,-23.499,11.536,71.350
-0.211,0.663,-0.893,-13.550,6.592,68.359
-0.201,0.573,-0.890,-4.333,6.165,63.293
-0.228,0.536,-0.913,0.244,4.517,63.049
-0.271,0.606,-0.949,3.296,0.732,69.214
-0.339,0.679,-1.031,4.456,-4.028,74.036
-0.408,0.749,-1.160,4.456,-11.169,76.172
-0.442,0.817,-1.253,5.798,-24.231,75.684
-0.413,0.852,-1.193,7.996,-44.128,71.655
-0.378,0.826,-0.966,7.874,-66.284,65.491
-0.356,0.850,-0.786,8.545,-77.209,61.707
-0.359,0.955,-0.781,13.794,-73.975,59.448
-0.362,1.022,-0.957,22.583,-67.261,51.636
-0.396,0.976,-1.075,29.236,-70.557,38.269
-0.406,0.947,-1.075,32.715,-85.388,27.832
-0.428,1.001,-1.018,36.682,-101.440,21.362
-0.436,1.155,-0.926,40.344,-116.272,14.893
-0.433,1.266,-0.853,44.250,-127.930,3.113
-0.434,1.142,-0.729,43.579,-138.367,-15.747
-0.362,0.837,-0.410,33.569,-150.940,-29.297
-0.236,0.796,-0.010,20.508,-155.029,-21.179
-0.179,1.059,0.138,17.944,-132.935,-2.747
-0.137,1.188,-0.018,20.874,-95.947,-1.587
-0.101,1.061,-0.266,23.743,-66.895,-13.733
-0.063,0.882,-0.327,20.508,-57.617,-22.705
-0.049,0.833,-0.228,13.977,-57.922,-20.264
-0.037,0.875,-0.169,10.254,-50.964,-14.160
-0.039,0.903,-0.278,11.536,-35.583,-12.756
-0.023,0.902,-0.394,11.597,-24.536,-14.404
-0.006,0.844,-0.434,8.667,-22.949,-17.578
0.005,0.762,-0.409,3.906,-24.414,-19.348
0.021,0.721,-0.350,-0.610,-24.841,-17.334
0.052,0.708,-0.283,-3.784,-21.851,-13.062
0.296,0.792,1.545,-39.795,14.893,9.583
0.258,0.837,1.543,-37.170,28.931,-1.770
0.224,0.887,1.515,-36.682,43.579,-12.085
0.175,0.833,1.364,-37.781,58.044,-25.696
0.143,0.850,1.237,-43.274,69.214,-35.706
0.123,0.868,1.272,-50.476,71.838,-44.922
0.102,0.905,1.259,-57.800,78.369,-54.504
0.061,0.916,1.127,-66.345,88.135,-65.063
0.031,0.932,1.012,-77.026,94.727,-75.745
0.001,0.937,0.935,-86.792,98.267,-86.670
-0.051,0.950,0.914,-89.661,100.830,-98.145
-0.072,0.875,0.800,-72.388,105.530,-112.244
-0.083,0.699,0.652,-41.748,110.718,-125.183
-0.084,0.582,0.466,-8.972,112.732,-132.935
-0.068,0.509,0.277,18.372,111.877,-137.451
-0.036,0.422,0.235,38.208,104.736,-140.320
-0.020,0.380,0.181,50.842,98.145,-141.785
0.010,0.364,0.050,56.396,93.445,-142.700
0.050,0.314,0.038,52.307,84.900,-145.874
0.093,0.289,0.142,41.809,74.524,-148.621
0.119,0.237,0.108,31.433,70.679,-152.710
0.134,0.153,0.059,23.743,67.505,-157.288
0.151,0.123,0.115,20.630,59.631,-160.034
0.167,0.082,0.055,24.475,54.810,-163.086
0.231,-0.118,-0.070,29.663,51.758,-167.419
0.311,-0.259,-0.131,32.654,43.945,-167.542
0.359,-0.334,-0.154,33.264,33.569,-164.062
0.409,-0.379,-0.172,34.302,22.766,-167.542
0.460,-0.422,-0.176,36.438,11.719,-181.396
0.500,-0.451,-0.097,37.231,0.305,-201.782
0.494,-0.625,-0.032,37.842,-8.545,-220.215
0.468,-1.127,0.073,40.955,-16.235,-197.876
0.563,-0.768,0.075,50.598,-20.569,-122.314
0.607,-0.745,0.079,56.885,-24.963,-104.065
0.624,-0.944,0.091,53.101,-29.785,-104.492
0.638,-1.084,0.131,48.279,-37.048,-99.426
0.641,-1.182,0.149,44.128,-44.434,-88.745
0.649,-1.279,0.182,38.879,-51.025,-75.623
0.660,-1.311,0.248,33.630,-58.777,-58.777
0.676,-1.286,0.267,30.579,-65.552,-40.833
0.690,-1.293,0.323,28.015,-73.425,-24.902
0.686,-1.282,0.405,26.733,-81.116,-9.338
0.675,-1.170,0.456,27.100,-87.036,6.287
0.677,-1.075,0.598,28.687,-94.177,18.921
0.663,-1.038,0.777,31.372,-98.450,27.344
0.656,-1.001,0.856,33.569,-96.619,34.851
0.633,-0.979,0.842,32.776,-91.431,41.870
0.622,-0.960,0.863,27.100,-88.379,48.523
0.589,-0.868,0.898,18.982,-87.585,57.434
0.565,-0.825,0.916,12.146,-85.693,63.965
0.545,-0.809,0.887,5.432,-82.825,68.787
0.535,-0.813,0.836,-2.869,-80.383,73.486
0.514,-0.823,0.855,-12.329,-80.872,79.041
0.464,-0.706,0.924,-20.203,-81.909,87.769
0.430,-0.558,0.980,-25.024,-81.177,95.337
0.406,-0.535,0.982,-27.771,-77.637,98.389
0.356,-0.472,1.017,-28.748,-74.524,102.356
0.319,-0.300,1.105,-26.855,-73.425,109.741
0.310,-0.276,1.126,-22.034,-68.298,111.450
0.284,-0.339,1.101,-15.869,-60.852,111.450
0.239,-0.344,0.960,-10.986,-54.626,116.821
0.189,-0.227,0.659,-11.475,-51.147,125.916
0.166,-0.074,0.710,-20.691,-61.707,134.766
0.147,-0.054,0.870,-31.921,-74.341,137.695
0.116,-0.024,0.834,-36.133,-74.890,140.137
0.096,0.088,0.816,-38.452,-77.087,144.653
0.076,0.185,0.753,-42.480,-80.627,146.484
0.066,0.281,0.755,-47.180,-84.961,148.132
0.046,0.363,0.824,-50.293,-91.736,152.588
0.033,0.373,0.837,-50.049,-94.055,164.185
0.023,0.390,0.820,-48.950,-94.788,174.255
-0.003,0.425,0.786,-46.570,-95.947,187.134
-0.067,0.468,0.849,-43.823,-101.074,209.961
0.075,1.368,0.866,-38.025,-101.807,213.806
0.010,0.864,0.986,-30.884,-103.577,122.803
0.009,0.780,0.859,-29.541,-98.389,95.520
0.032,0.804,0.873,-27.344,-99.792,89.844
0.012,0.803,0.874,-29.785,-101.685,81.055
0.013,0.947,0.939,-32.288,-105.042,74.707
0.008,1.032,0.955,-37.170,-106.812,63.965
0.002,1.187,1.047,-45.349,-107.178,50.232
-0.009,1.260,1.190,-51.208,-106.262,31.372
-0.008,1.208,1.292,-50.110,-99.487,8.362
-0.003,1.059,1.289,-44.983,-88.135,-12.085
-0.000,0.868,1.297,-37.109,-77.576,-29.175
0.003,0.835,1.277,-26.428,-68.054,-38.086
0.011,0.758,1.242,-15.930,-58.838,-46.021
0.011,0.724,1.256,-9.949,-52.979,-53.772
0.023,0.730,1.260,-8.789,-47.363,-61.035
0.025,0.734,1.374,-12.268,-43.762,-70.557
0.035,0.743,1.507,-15.259,-37.842,-82.703
0.045,0.616,1.549,-15.442,-26.123,-97.717
0.065,0.506,1.521,-17.334,-12.329,-111.145
0.083,0.381,1.506,-19.958,-0.916,-121.582
0.109,0.226,1.535,-21.545,7.935,-130.554
0.134,0.052,1.534,-20.020,18.982,-137.878
0.158,-0.057,1.502,-15.686,30.518,-139.465
0.159,-0.184,1.488,-11.597,41.016,-138.550
0.148,-0.265,1.379,-7.812,51.270,-137.207
0.178,-0.348,1.296,-6.104,58.411,-142.700
0.177,-0.375,1.261,-5.188,59.570,-161.743
0.154,-0.383,1.196,-4.211,61.462,-181.213
0.146,-0.580,1.149,-3.845,61.768,-192.505
0.159,-0.762,1.144,-6.348,60.791,-142.212
0.230,-0.464,1.116,-5.066,62.195,-70.068
0.230,-0.544,1.086,-9.216,60.242,-65.186
0.248,-0.495,1.072,-10.925,60.364,-56.763
0.271,-0.506,1.029,-11.536,61.096,-46.204
0.272,-0.483,0.941,-11.536,62.195,-36.499
0.282,-0.369,0.762,-9.949,62.622,-24.841
0.311,-0.282,0.649,-9.644,57.861,-16.052
0.339,-0.237,0.691,-11.963,47.363,-10.132
0.357,-0.207,0.695,-13.855,40.466,-5.310
0.366,-0.166,0.647,-13.794,37.170,-0.854
0.369,-0.111,0.602,-12.024,33.447,3.967
0.369,-0.058,0.570,-9.583,28.931,8.118
0.371,-0.013,0.585,-6.470,23.499,11.841
0.376,0.029,0.583,-2.258,18.433,14.954
0.375,0.090,0.596,1.953,14.038,17.578

0.312,0.908,1.341,-159.851,-24.475,94.238
0.256,0.336,1.431,-164.551,-24.231,1.221
0.264,0.406,1.471,-160.645,-11.719,5.981
0.240,0.348,1.568,-155.640,-0.793,10.498
0.195,0.418,1.602,-148.193,15.747,12.878
0.149,0.598,1.568,-136.780,35.706,17.883
0.132,0.639,1.455,-126.526,56.335,14.893
0.098,0.670,1.322,-123.169,73.425,8.850
0.049,0.811,1.221,-127.502,85.632,5.127
-0.005,1.082,0.963,-129.883,95.459,-0.366
-0.027,1.193,0.732,-127.686,98.389,-15.137
-0.029,1.147,0.758,-123.230,88.806,-37.842
-0.022,1.015,0.884,-116.577,78.247,-58.289
-0.012,0.937,0.999,-109.314,76.111,-72.266
-0.022,0.977,1.019,-99.915,81.726,-80.933
-0.024,1.000,0.972,-85.205,90.698,-91.553
-0.045,0.976,0.896,-68.237,100.647,-104.370
-0.072,0.933,0.753,-53.711,111.023,-116.455
-0.115,0.937,0.411,-40.833,120.911,-125.183
-0.103,0.965,0.197,-28.137,120.728,-131.897
-0.105,0.988,0.239,-13.184,109.436,-140.442
-0.093,0.996,0.215,4.028,103.760,-151.611
-0.108,0.888,0.067,23.804,102.722,-165.100
-0.085,0.687,-0.120,41.504,99.854,-177.734
-0.047,0.576,-0.230,55.420,89.844,-183.289
-0.017,0.518,-0.226,65.857,77.454,-184.570
-0.000,0.534,-0.161,74.585,65.247,-186.462
0.014,0.521,-0.127,85.205,57.800,-191.406
0.030,0.408,-0.109,97.229,53.833,-200.623
0.057,0.209,-0.284,109.070,52.734,-207.520
0.085,-0.018,-0.376,111.938,45.715,-209.961
0.164,-0.181,-0.323,113.708,31.555,-203.796
0.213,-0.249,-0.335,117.859,21.057,-195.557
0.225,-0.264,-0.395,126.099,11.902,-187.500
0.274,-0.249,-0.390,135.010,-0.671,-178.955
0.302,-0.202,-0.249,143.250,-16.052,-166.443
0.352,-0.223,-0.227,156.067,-23.682,-154.663
0.429,-0.349,-0.229,172.119,-29.358,-155.579
0.482,-0.429,-0.271,184.814,-36.743,-171.448
0.521,-0.506,-0.338,192.017,-45.166,-203.064
0.460,-1.014,-0.269,188.354,-61.707,-240.662
0.531,-1.215,-0.014,172.363,-79.346,-179.260
0.586,-0.847,0.102,171.936,-86.121,-87.891
0.579,-0.952,0.194,159.241,-92.041,-79.163
0.570,-1.078,0.265,143.616,-93.994,-73.547
0.595,-1.167,0.383,132.996,-100.830,-61.035
0.595,-1.225,0.397,125.916,-103.027,-46.936
0.580,-1.231,0.522,119.019,-108.032,-32.043
0.555,-1.246,0.604,113.831,-112.000,-18.188
0.546,-1.315,0.723,107.483,-115.417,-4.333
0.531,-1.332,0.816,98.267,-117.981,11.536
0.506,-1.317,0.897,84.595,-117.371,29.297
0.466,-1.257,1.050,70.740,-117.615,46.936
0.450,-1.200,1.095,58.228,-113.831,63.354
0.425,-1.129,1.208,49.988,-109.924,78.430
0.418,-1.050,1.404,47.302,-107.178,92.896
0.411,-0.944,1.547,46.936,-96.802,107.178
0.384,-0.783,1.533,44.128,-79.590,120.667
0.365,-0.654,1.302,33.691,-60.242,130.249
0.313,-0.485,0.932,13.428,-49.805,137.024
0.305,-0.305,0.789,-14.587,-54.138,142.090
0.299,-0.303,0.929,-41.931,-69.214,142.578
0.272,-0.297,0.830,-55.542,-73.181,143.982
0.247,-0.183,0.821,-61.523,-77.820,151.428
0.240,-0.144,0.859,-66.040,-85.449,157.043
0.195,-0.032,0.939,-64.697,-90.454,162.903
0.191,0.245,1.143,-58.044,-95.398,172.546
0.193,0.344,1.166,-49.377,-90.576,182.373
0.211,0.371,1.013,-44.128,-80.322,195.068
0.200,0.402,0.943,-44.678,-77.759,202.820
0.185,0.413,0.987,-44.983,-81.238,215.393
0.267,0.807,0.854,-40.833,-78.918,227.173
0.235,0.520,0.761,-35.217,-80.688,167.297
0.190,0.246,0.797,-37.720,-94.238,121.033
0.163,0.378,0.759,-35.583,-99.304,127.686
0.115,0.473,0.791,-36.133,-106.506,130.005
0.081,0.605,0.911,-36.011,-113.647,125.427
0.084,0.830,1.173,-36.926,-119.568,119.263
0.093,0.928,1.026,-40.527,-111.023,104.248
0.091,0.825,0.887,-50.903,-103.455,82.703
0.083,0.803,0.818,-63.171,-105.896,67.505
0.086,0.732,0.808,-74.585,-110.596,55.847
0.077,0.669,0.781,-83.374,-115.601,47.363
0.070,0.703,0.729,-87.585,-119.629,42.297
0.058,0.632,0.747,-87.280,-126.770,35.706
0.032,0.587,0.830,-81.238,-133.240,31.555
0.002,0.746,0.986,-70.435,-137.207,30.334
-0.010,0.980,1.284,-62.988,-139.160,25.391
-0.009,1.186,1.497,-63.904,-131.287,10.193
-0.051,1.226,1.278,-70.190,-110.046,-14.099
-0.046,1.212,1.091,-81.299,-95.459,-41.199
-0.073,1.189,1.153,-107.544,-96.252,-68.237
-0.113,1.195,1.161,-138.611,-95.276,-92.163
-0.129,1.054,1.347,-161.011,-95.337,-115.967
-0.134,0.795,1.624,-165.833,-92.285,-134.521
-0.105,0.594,1.678,-150.574,-75.562,-142.883
-0.066,0.538,1.595,-121.277,-51.697,-141.357
-0.038,0.538,1.492,-91.125,-32.593,-138.123
-0.013,0.676,1.423,-71.899,-17.883,-136.536
-0.020,0.676,1.486,-65.063,-6.714,-140.930
-0.014,0.515,1.545,-57.617,5.676,-150.330
-0.010,0.444,1.454,-48.828,23.132,-155.396
0.017,0.569,1.375,-43.640,38.269,-156.250
-0.013,0.544,1.490,-47.791,47.485,-166.077
-0.046,0.358,1.459,-50.171,61.340,-180.725
-0.081,0.068,1.279,-44.495,76.538,-190.369
-0.060,-0.227,1.033,-35.767,83.557,-189.331
0.029,-0.286,1.109,-27.039,76.294,-182.495
0.053,-0.278,1.157,-13.550,71.777,-177.856
0.094,-0.275,1.094,-0.916,76.599,-163.635
0.120,-0.258,1.067,6.531,78.247,-140.747
0.148,-0.208,0.840,10.803,81.970,-112.549
0.201,-0.136,0.786,11.719,78.552,-86.853
0.226,-0.162,0.727,10.925,70.740,-75.623
0.263,-0.162,0.703,9.644,66.040,-65.552
0.274,-0.083,0.846,6.348,56.213,-53.650
0.271,-0.068,0.776,6.226,55.969,-44.434
0.290,-0.122,0.717,8.057,54.382,-36.865
0.327,-0.101,0.625,10.437,51.514,-26.306

0.019,1.436,1.068,-77.759,60.791,14.648
-0.012,1.550,0.764,-75.500,76.538,-0.244
-0.008,1.628,0.738,-72.754,79.895,-18.616
-0.021,1.520,0.805,-73.853,80.261,-41.992
-0.049,1.553,0.703,-74.524,88.135,-62.195
-0.076,1.650,0.584,-70.679,95.947,-81.177
-0.076,1.740,0.659,-63.171,98.572,-104.553
-0.143,1.622,0.606,-56.885,105.652,-133.240
-0.167,1.347,0.369,-51.453,116.150,-159.668
-0.165,1.184,0.138,-46.265,117.737,-174.011
-0.132,1.078,-0.029,-38.574,111.145,-180.664
-0.108,0.963,-0.093,-26.367,102.783,-185.852
-0.090,0.870,-0.145,-12.085,93.811,-189.880
-0.125,0.801,-0.271,3.601,87.708,-193.054
-0.086,0.693,-0.337,16.113,77.637,-196.167
-0.059,0.523,-0.426,28.625,67.078,-199.524
-0.030,0.403,-0.410,45.715,53.833,-200.073
-0.000,0.345,-0.367,65.979,41.016,-196.960
0.035,0.150,-0.439,89.294,33.447,-197.327
0.080,0.082,-0.497,114.197,24.841,-193.359
0.090,0.046,-0.477,130.554,11.475,-187.073
0.128,-0.126,-0.459,139.465,-0.488,-185.059
0.155,-0.216,-0.320,147.705,-12.939,-179.443
0.189,-0.254,-0.389,155.823,-20.325,-171.509
0.232,-0.303,-0.308,155.151,-29.663,-165.833
0.254,-0.329,-0.101,148.132,-42.969,-164.917
0.299,-0.379,-0.071,143.921,-45.776,-169.128
0.332,-0.423,-0.059,141.418,-48.523,-183.105
0.360,-0.470,-0.042,142.639,-54.321,-203.125
0.375,-0.740,-0.064,153.809,-62.378,-227.478
0.434,-1.352,-0.044,163.879,-72.266,-189.636
0.548,-1.043,-0.220,186.218,-80.688,-99.609
0.536,-1.251,-0.156,197.998,-97.778,-80.811
0.554,-1.127,0.045,203.003,-115.662,-59.875
0.550,-0.965,0.520,184.937,-131.042,-38.025
0.525,-0.856,0.664,156.433,-129.272,-26.733
0.514,-0.819,0.730,138.306,-121.826,-19.775
0.522,-0.946,0.839,128.113,-120.972,-15.564
0.539,-1.035,0.924,120.911,-119.080,-8.240
0.526,-1.075,0.974,116.150,-117.065,3.235
0.517,-1.069,1.017,112.793,-115.112,17.090
0.526,-1.047,1.024,109.619,-113.647,30.884
0.480,-1.007,1.062,103.699,-112.915,45.349
0.454,-0.914,1.145,93.445,-112.793,59.814
0.420,-0.834,1.226,79.712,-110.596,71.594
0.392,-0.738,1.281,66.772,-105.713,78.857
0.404,-0.703,1.310,56.519,-99.426,83.374
0.412,-0.746,1.319,45.410,-91.858,85.938
0.422,-0.675,1.395,32.776,-85.938,93.323
0.412,-0.568,1.489,21.362,-78.308,102.600
0.392,-0.497,1.509,13.855,-67.200,110.596
0.372,-0.519,1.479,7.141,-52.856,117.615
0.364,-0.527,1.443,2.258,-40.771,127.075
0.316,-0.493,1.321,-1.099,-29.541,139.404
0.264,-0.410,1.085,-5.493,-20.569,154.480
0.217,-0.279,0.756,-17.761,-17.822,168.457
0.188,-0.089,0.701,-38.269,-28.931,180.969
0.131,0.119,0.827,-55.542,-46.692,189.880
0.095,0.326,0.734,-58.716,-53.589,195.557
0.099,0.460,0.775,-55.786,-63.599,210.937
0.124,0.466,0.944,-52.612,-75.500,245.422
0.055,0.516,0.945,-49.255,-74.524,280.151
0.252,1.021,0.836,-49.683,-70.374,251.526
0.180,0.586,0.858,-50.232,-75.256,150.269
0.153,0.636,0.791,-47.424,-73.853,139.526
0.153,0.722,0.815,-40.466,-79.651,137.451
0.138,0.672,0.838,-38.025,-83.252,127.258
0.133,0.680,0.803,-39.490,-85.632,120.667
0.099,0.740,0.839,-45.105,-90.271,114.441
0.080,0.809,0.849,-51.636,-93.994,106.445
0.057,0.820,0.732,-56.763,-95.154,95.215
0.049,0.783,0.772,-63.171,-101.379,84.167
0.063,0.776,0.816,-67.871,-107.910,74.768
0.048,0.757,0.820,-70.557,-110.291,67.139
0.028,0.662,0.695,-69.275,-110.901,59.265
0.006,0.598,0.664,-64.331,-116.760,55.054
0.008,0.637,0.862,-57.983,-125.916,55.542
-0.002,0.777,1.059,-51.270,-130.066,55.664
-0.006,0.944,1.091,-47.363,-123.474,50.232
-0.026,1.027,1.247,-48.523,-118.103,36.499
-0.024,1.140,1.210,-53.711,-108.337,19.592
-0.043,0.996,1.078,-66.406,-97.412,-2.686
-0.051,0.888,0.985,-81.360,-93.628,-22.217
-0.060,0.738,0.935,-95.886,-94.849,-35.889
-0.058,0.625,0.851,-108.337,-97.839,-44.556
-0.050,0.550,0.865,-116.516,-104.309,-47.302
-0.057,0.471,0.917,-115.967,-111.145,-47.119
-0.060,0.460,0.925,-109.802,-114.197,-43.762
-0.074,0.668,1.118,-109.497,-116.699,-39.063
-0.084,1.069,1.427,-112.793,-118.713,-39.124
-0.132,1.269,1.458,-116.272,-106.323,-55.664
-0.118,1.256,1.278,-119.507,-87.646,-83.008
-0.145,1.163,1.234,-133.911,-80.139,-111.450
-0.165,1.001,1.259,-151.489,-76.477,-133.972
-0.200,0.708,1.405,-161.743,-73.120,-151.306
-0.241,0.543,1.369,-153.687,-63.660,-155.334
-0.226,0.485,1.291,-140.137,-52.673,-149.414
-0.201,0.521,1.430,-129.639,-49.011,-141.113
-0.202,0.551,1.533,-121.155,-40.100,-136.414
-0.198,0.584,1.532,-107.788,-25.391,-134.155
-0.182,0.637,1.484,-93.750,-8.545,-132.935
-0.168,0.674,1.473,-87.402,6.287,-135.071
-0.146,0.728,1.521,-85.632,20.813,-140.259
-0.134,0.735,1.513,-84.351,37.903,-148.315
-0.154,0.622,1.347,-77.148,58.533,-158.936
-0.167,0.397,1.140,-66.833,73.364,-166.260
-0.115,0.199,0.860,-55.603,80.322,-162.781
-0.039,0.016,0.762,-45.410,77.454,-149.902
0.026,-0.008,0.819,-33.569,70.801,-129.395
0.069,0.168,0.720,-17.334,72.266,-105.591
0.119,0.259,0.578,-3.296,73.975,-90.698
0.169,0.220,0.531,4.944,70.740,-83.679
0.207,0.182,0.505,8.240,66.040,-75.439
0.231,0.157,0.433,11.780,63.232,-65.002
0.262,0.115,0.391,17.212,58.350,-54.382
0.294,0.058,0.323,26.367,52.979,-42.603
0.328,0.129,0.287,35.339,47.241,-27.832
0.331,0.240,0.254,40.405,41.504,-13.672
0.322,0.328,0.228,37.964,35.706,-4.517

0.170,1.353,1.003,-43.945,34.607,25.635
0.151,1.346,0.985,-44.250,41.748,12.939
0.135,1.327,0.939,-45.471,48.645,1.526
0.135,1.357,0.937,-47.852,54.749,-6.897
0.122,1.444,1.000,-50.232,60.608,-15.503
0.109,1.525,1.001,-51.025,70.984,-27.527
0.078,1.535,0.921,-48.950,83.130,-43.457
0.059,1.670,0.801,-45.166,95.032,-59.509
0.043,1.780,0.804,-39.734,103.210,-79.041
0.026,1.868,0.856,-34.180,111.389,-104.065
0.001,1.809,0.779,-29.358,125.000,-133.179
-0.036,1.606,0.602,-26.855,138.550,-163.452
-0.064,1.380,0.469,-25.574,144.165,-186.096
-0.047,1.111,0.253,-23.499,144.836,-201.355
0.158,0.850,0.205,-19.958,136.597,-208.557
-0.037,0.865,0.168,-20.691,131.958,-205.017
0.027,0.548,-0.023,-7.690,130.432,-208.801
0.100,0.684,0.012,10.437,108.459,-193.481
0.151,0.716,0.075,24.658,97.778,-186.584
0.153,0.587,-0.015,37.109,95.825,-191.467
0.153,0.564,-0.142,47.363,93.445,-192.139
0.170,0.482,-0.247,53.894,86.365,-192.932
0.204,0.350,-0.225,54.077,75.378,-194.336
0.223,0.299,-0.189,52.368,65.063,-192.627
0.214,0.268,-0.293,50.659,59.631,-190.979
0.208,0.177,-0.401,50.842,50.537,-190.491
0.245,-0.015,-0.416,55.725,36.194,-188.843
0.299,-0.126,-0.437,63.660,21.301,-181.152
0.328,-0.122,-0.467,69.641,8.850,-168.335
0.338,-0.072,-0.458,76.599,-2.930,-156.921
0.355,-0.099,-0.368,88.623,-15.564,-150.635
0.372,-0.165,-0.516,109.558,-21.545,-146.118
0.370,-0.227,-0.659,132.202,-30.640,-141.541
0.384,-0.309,-0.645,154.358,-50.232,-138.306
0.414,-0.382,-0.603,178.101,-70.313,-144.836
0.430,-0.445,-0.580,196.350,-86.609,-169.617
0.392,-0.491,-0.527,203.308,-103.149,-205.566
0.263,-1.501,-0.362,204.285,-121.582,-214.050
0.390,-0.873,-0.272,206.116,-136.353,-111.511
0.441,-0.755,0.042,203.430,-147.705,-67.566
0.428,-1.038,0.196,176.636,-148.621,-69.397
0.439,-1.032,0.303,151.733,-144.348,-55.908
0.465,-1.040,0.389,131.897,-142.090,-41.077
0.482,-1.116,0.433,116.394,-138.367,-30.212
0.490,-1.186,0.484,108.093,-137.573,-17.334
0.478,-1.241,0.501,106.506,-137.268,-2.563
0.460,-1.243,0.604,107.178,-140.625,13.733
0.452,-1.212,0.767,108.887,-144.714,31.006
0.442,-1.161,0.810,107.971,-142.334,46.326
0.418,-1.093,0.974,97.229,-140.442,60.730
0.394,-0.960,1.230,79.651,-139.404,73.914
0.393,-0.865,1.436,60.608,-130.066,82.092
0.377,-0.814,1.457,42.480,-112.061,87.036
0.432,-0.853,1.418,26.306,-95.215,90.027
0.410,-0.816,1.353,14.587,-82.581,97.961
0.396,-0.728,1.319,6.897,-73.547,109.009
0.390,-0.620,1.091,5.676,-65.247,118.225
0.396,-0.529,0.929,2.563,-65.308,126.221
0.397,-0.352,0.914,-5.798,-73.486,135.742
0.409,-0.279,1.018,-13.245,-81.238,141.968
0.399,-0.128,1.021,-13.245,-83.923,146.790
0.369,-0.027,1.021,-11.841,-84.106,149.353
0.348,0.035,1.068,-10.071,-84.839,149.109
0.355,0.054,1.086,-5.798,-82.397,147.583
0.355,0.047,1.098,-1.770,-78.125,145.935
0.363,0.092,1.045,0.793,-72.937,145.752
0.357,0.064,1.124,-0.793,-69.519,145.203
0.349,0.125,1.133,-4.578,-64.575,147.400
0.336,0.206,1.146,-12.451,-56.702,151.489
0.316,0.192,1.073,-22.583,-49.438,151.367
0.290,0.229,0.867,-34.058,-41.443,152.771
0.260,0.320,0.789,-45.288,-44.067,158.936
0.249,0.374,0.786,-51.880,-51.575,168.579
0.234,0.413,0.798,-52.063,-58.655,181.519
0.210,0.431,0.882,-45.654,-64.331,200.073
0.190,0.417,0.921,-37.659,-67.261,222.351
0.278,0.861,0.765,-33.386,-63.232,234.314
0.193,0.554,0.583,-31.494,-65.796,172.852
0.152,0.426,0.571,-37.659,-80.200,139.038
0.104,0.548,0.587,-39.429,-93.018,147.583
0.057,0.601,0.629,-40.039,-102.417,151.855
0.014,0.793,0.852,-42.908,-114.807,152.100
-0.001,1.172,1.100,-45.837,-120.361,151.184
0.009,1.491,1.000,-46.265,-110.901,136.353
0.022,1.610,0.947,-50.781,-103.699,107.422
0.041,1.662,0.981,-62.927,-103.210,74.280
0.043,1.616,1.023,-76.599,-101.379,41.626
0.016,1.420,1.006,-88.928,-97.290,10.010
0.018,1.226,0.909,-92.896,-92.224,-12.024
0.014,0.958,0.924,-91.553,-93.201,-26.978
0.015,0.766,0.934,-84.045,-93.628,-33.264
0.006,0.761,1.036,-70.618,-93.262,-31.860
0.002,0.812,1.135,-53.650,-89.783,-31.738
0.023,0.956,1.279,-39.368,-82.886,-35.400
0.025,1.036,1.207,-36.133,-69.702,-47.668
0.008,1.079,1.028,-43.396,-55.359,-66.406
-0.005,1.129,1.004,-61.890,-51.941,-87.463
-0.030,1.075,1.054,-89.844,-52.856,-111.023
-0.050,0.907,1.123,-116.821,-52.185,-133.667
-0.066,0.673,1.205,-132.202,-49.744,-150.146
-0.058,0.434,1.275,-132.202,-45.715,-158.020
-0.046,0.298,1.262,-119.080,-37.598,-156.799
-0.029,0.326,1.267,-105.957,-30.151,-148.437
-0.016,0.363,1.371,-95.825,-24.414,-143.250
-0.002,0.341,1.429,-81.421,-14.832,-141.663
-0.001,0.335,1.505,-65.979,-2.014,-140.808
-0.005,0.416,1.389,-50.049,15.442,-137.817
-0.001,0.358,1.300,-44.800,28.625,-139.465
